trial,response_time,accuracy,decision_time,evidence_time
1,1.1400000000000006,1,0.8900000000000007,0.8900000000000007
2,0.4940000000000002,1,0.2440000000000002,0.2440000000000002
3,0.6380000000000003,1,0.3880000000000003,0.3880000000000003
4,1.0440000000000005,1,0.7940000000000006,0.7940000000000006
5,0.6740000000000004,1,0.4240000000000003,0.4240000000000003
6,1.1890000000000007,1,0.9390000000000007,0.9390000000000007
7,3.25,0,3.0,3.0
8,1.5259999999999703,1,1.2759999999999703,1.2759999999999703
9,0.9660000000000005,1,0.7160000000000005,0.7160000000000005
10,3.25,0,3.0,3.0
11,0.8960000000000005,1,0.6460000000000005,0.6460000000000005
12,1.0260000000000007,1,0.7760000000000006,0.7760000000000006
13,0.7060000000000004,1,0.45600000000000035,0.45600000000000035
14,0.5690000000000002,1,0.31900000000000023,0.31900000000000023
15,1.0890000000000006,1,0.8390000000000006,0.8390000000000006
16,0.8100000000000004,1,0.5600000000000004,0.5600000000000004
17,1.0870000000000006,1,0.8370000000000006,0.8370000000000006
18,1.0500000000000007,1,0.8000000000000006,0.8000000000000006
19,0.6730000000000003,1,0.4230000000000003,0.4230000000000003
20,0.6340000000000003,1,0.3840000000000003,0.3840000000000003
21,0.9010000000000005,1,0.6510000000000005,0.6510000000000005
22,1.2789999999999975,1,1.0289999999999975,1.0289999999999975
23,0.7000000000000004,1,0.45000000000000034,0.45000000000000034
24,1.7989999999999402,1,1.5489999999999402,1.5489999999999402
25,0.7900000000000004,1,0.5400000000000004,0.5400000000000004
26,1.7699999999999434,1,1.5199999999999434,1.5199999999999434
27,2.4059999999998736,1,2.1559999999998736,2.1559999999998736
28,0.6850000000000003,1,0.43500000000000033,0.43500000000000033
29,0.8480000000000004,1,0.5980000000000004,0.5980000000000004
30,1.61899999999996,1,1.36899999999996,1.36899999999996
31,2.008999999999917,1,1.758999999999917,1.758999999999917
32,0.9990000000000006,1,0.7490000000000006,0.7490000000000006
33,0.9030000000000005,1,0.6530000000000005,0.6530000000000005
34,2.178999999999898,1,1.9289999999998984,1.9289999999998984
35,0.4720000000000002,1,0.22200000000000017,0.22200000000000017
36,3.0709999999998003,1,2.8209999999998003,2.8209999999998003
37,0.9500000000000005,1,0.7000000000000005,0.7000000000000005
38,2.145999999999902,1,1.895999999999902,1.895999999999902
39,0.8140000000000004,1,0.5640000000000004,0.5640000000000004
40,0.7890000000000004,1,0.5390000000000004,0.5390000000000004
41,0.43900000000000017,1,0.18900000000000014,0.18900000000000014
42,0.7620000000000003,1,0.5120000000000003,0.5120000000000003
43,1.2589999999999997,1,1.0089999999999997,1.0089999999999997
44,0.9370000000000005,1,0.6870000000000005,0.6870000000000005
45,1.2190000000000007,1,0.9690000000000007,0.9690000000000007
46,1.0750000000000006,1,0.8250000000000006,0.8250000000000006
47,0.6990000000000003,1,0.44900000000000034,0.44900000000000034
48,1.590999999999963,1,1.340999999999963,1.340999999999963
49,2.07399999999991,1,1.82399999999991,1.82399999999991
50,1.4939999999999738,1,1.2439999999999738,1.2439999999999738
51,0.7030000000000003,1,0.45300000000000035,0.45300000000000035
52,1.2200000000000006,1,0.9700000000000008,0.9700000000000008
53,0.9550000000000005,1,0.7050000000000005,0.7050000000000005
54,1.482999999999975,1,1.232999999999975,1.232999999999975
55,1.1080000000000005,1,0.8580000000000007,0.8580000000000007
56,1.5439999999999683,1,1.2939999999999683,1.2939999999999683
57,0.6540000000000004,1,0.4040000000000003,0.4040000000000003
58,2.7629999999998343,1,2.5129999999998343,2.5129999999998343
59,0.9130000000000005,1,0.6630000000000005,0.6630000000000005
60,0.8630000000000004,1,0.6130000000000004,0.6130000000000004
61,1.4969999999999735,1,1.2469999999999735,1.2469999999999735
62,0.3880000000000001,1,0.1380000000000001,0.1380000000000001
63,0.6680000000000004,1,0.4180000000000003,0.4180000000000003
64,0.9180000000000005,1,0.6680000000000005,0.6680000000000005
65,1.1210000000000007,1,0.8710000000000007,0.8710000000000007
66,0.6620000000000004,1,0.4120000000000003,0.4120000000000003
67,1.0500000000000007,1,0.8000000000000006,0.8000000000000006
68,1.1100000000000008,1,0.8600000000000007,0.8600000000000007
69,0.5880000000000003,1,0.33800000000000024,0.33800000000000024
70,1.0750000000000006,1,0.8250000000000006,0.8250000000000006
71,1.4619999999999773,1,1.2119999999999773,1.2119999999999773
72,1.5749999999999649,1,1.3249999999999649,1.3249999999999649
73,1.5249999999999704,1,1.2749999999999704,1.2749999999999704
74,0.8790000000000004,1,0.6290000000000004,0.6290000000000004
75,2.7709999999998334,1,2.5209999999998334,2.5209999999998334
76,1.0380000000000007,1,0.7880000000000006,0.7880000000000006
77,0.5620000000000003,1,0.3120000000000002,0.3120000000000002
78,1.4509999999999785,1,1.2009999999999785,1.2009999999999785
79,1.6779999999999535,1,1.4279999999999535,1.4279999999999535
80,0.6810000000000003,1,0.4310000000000003,0.4310000000000003
81,2.247999999999891,1,1.9979999999998908,1.9979999999998908
82,0.8870000000000005,1,0.6370000000000005,0.6370000000000005
83,1.1480000000000006,1,0.8980000000000007,0.8980000000000007
84,1.564999999999966,1,1.314999999999966,1.314999999999966
85,0.5970000000000002,1,0.34700000000000025,0.34700000000000025
86,0.8430000000000004,1,0.5930000000000004,0.5930000000000004
87,1.4489999999999787,1,1.1989999999999787,1.1989999999999787
88,0.6140000000000003,1,0.36400000000000027,0.36400000000000027
89,1.0610000000000006,1,0.8110000000000006,0.8110000000000006
90,1.2120000000000006,1,0.9620000000000007,0.9620000000000007
91,1.610999999999961,1,1.360999999999961,1.360999999999961
92,1.1050000000000006,1,0.8550000000000006,0.8550000000000006
93,1.9449999999999241,1,1.6949999999999241,1.6949999999999241
94,1.0070000000000006,1,0.7570000000000006,0.7570000000000006
95,1.0530000000000006,1,0.8030000000000006,0.8030000000000006
96,1.374999999999987,1,1.124999999999987,1.124999999999987
97,1.0170000000000006,1,0.7670000000000006,0.7670000000000006
98,1.545999999999968,1,1.295999999999968,1.295999999999968
99,2.139999999999903,1,1.8899999999999026,1.8899999999999026
100,3.0749999999998,1,2.8249999999998,2.8249999999998
101,2.2869999999998867,1,2.0369999999998867,2.0369999999998867
102,1.5159999999999714,1,1.2659999999999714,1.2659999999999714
103,2.152999999999901,1,1.9029999999999012,1.9029999999999012
104,0.8140000000000004,1,0.5640000000000004,0.5640000000000004
105,1.4709999999999763,1,1.2209999999999763,1.2209999999999763
106,1.1130000000000007,1,0.8630000000000007,0.8630000000000007
107,0.5310000000000001,1,0.2810000000000002,0.2810000000000002
108,0.4710000000000002,1,0.22100000000000017,0.22100000000000017
109,0.8690000000000004,1,0.6190000000000004,0.6190000000000004
110,1.1280000000000006,1,0.8780000000000007,0.8780000000000007
111,0.6270000000000002,1,0.3770000000000003,0.3770000000000003
112,1.3129999999999937,1,1.0629999999999937,1.0629999999999937
113,1.600999999999962,1,1.350999999999962,1.350999999999962
114,1.1770000000000007,1,0.9270000000000007,0.9270000000000007
115,0.9180000000000005,1,0.6680000000000005,0.6680000000000005
116,0.7230000000000003,1,0.47300000000000036,0.47300000000000036
117,2.0639999999999112,1,1.813999999999911,1.813999999999911
118,1.8779999999999315,1,1.6279999999999315,1.6279999999999315
119,0.7930000000000004,1,0.5430000000000004,0.5430000000000004
120,0.5400000000000003,1,0.2900000000000002,0.2900000000000002
121,1.600999999999962,1,1.350999999999962,1.350999999999962
122,3.25,0,3.0,3.0
123,0.7870000000000004,1,0.5370000000000004,0.5370000000000004
124,2.320999999999883,1,2.070999999999883,2.070999999999883
125,0.6490000000000002,1,0.3990000000000003,0.3990000000000003
126,0.6740000000000004,1,0.4240000000000003,0.4240000000000003
127,0.7870000000000004,1,0.5370000000000004,0.5370000000000004
128,0.9030000000000005,1,0.6530000000000005,0.6530000000000005
129,1.9589999999999226,1,1.7089999999999226,1.7089999999999226
130,0.8030000000000004,1,0.5530000000000004,0.5530000000000004
131,1.6889999999999523,1,1.4389999999999523,1.4389999999999523
132,0.9950000000000006,1,0.7450000000000006,0.7450000000000006
133,1.0950000000000006,1,0.8450000000000006,0.8450000000000006
134,1.5059999999999725,1,1.2559999999999725,1.2559999999999725
135,0.7610000000000003,1,0.5110000000000003,0.5110000000000003
136,1.1660000000000008,1,0.9160000000000007,0.9160000000000007
137,0.7170000000000003,1,0.46700000000000036,0.46700000000000036
138,1.464999999999977,1,1.214999999999977,1.214999999999977
139,1.264999999999999,1,1.014999999999999,1.014999999999999
140,1.0010000000000006,1,0.7510000000000006,0.7510000000000006
141,2.3499999999998797,1,2.0999999999998797,2.0999999999998797
142,1.828999999999937,1,1.578999999999937,1.578999999999937
143,1.809999999999939,1,1.559999999999939,1.559999999999939
144,1.6309999999999587,1,1.3809999999999587,1.3809999999999587
145,1.637999999999958,1,1.387999999999958,1.387999999999958
146,1.4539999999999782,1,1.2039999999999782,1.2039999999999782
147,1.1920000000000006,1,0.9420000000000007,0.9420000000000007
148,0.5810000000000002,1,0.33100000000000024,0.33100000000000024
149,0.7550000000000003,1,0.5050000000000003,0.5050000000000003
150,0.4910000000000002,1,0.2410000000000002,0.2410000000000002
151,0.8440000000000004,1,0.5940000000000004,0.5940000000000004
152,1.3339999999999914,1,1.0839999999999914,1.0839999999999914
153,1.0260000000000007,1,0.7760000000000006,0.7760000000000006
154,2.1819999999998982,1,1.931999999999898,1.931999999999898
155,0.7760000000000004,1,0.5260000000000004,0.5260000000000004
156,1.4159999999999824,1,1.1659999999999824,1.1659999999999824
157,1.5209999999999708,1,1.2709999999999708,1.2709999999999708
158,0.9700000000000005,1,0.7200000000000005,0.7200000000000005
159,1.1570000000000007,1,0.9070000000000007,0.9070000000000007
160,0.6050000000000002,1,0.35500000000000026,0.35500000000000026
161,3.25,0,3.0,3.0
162,0.9700000000000005,1,0.7200000000000005,0.7200000000000005
163,0.4860000000000002,1,0.23600000000000018,0.23600000000000018
164,0.9920000000000005,1,0.7420000000000005,0.7420000000000005
165,2.1849999999998975,1,1.9349999999998977,1.9349999999998977
166,1.7179999999999491,1,1.4679999999999491,1.4679999999999491
167,0.8400000000000004,1,0.5900000000000004,0.5900000000000004
168,1.7699999999999434,1,1.5199999999999434,1.5199999999999434
169,1.0420000000000007,1,0.7920000000000006,0.7920000000000006
170,1.5879999999999634,1,1.3379999999999634,1.3379999999999634
171,1.1530000000000007,1,0.9030000000000007,0.9030000000000007
172,1.3349999999999913,1,1.0849999999999913,1.0849999999999913
173,1.4179999999999822,1,1.1679999999999822,1.1679999999999822
174,0.9300000000000005,1,0.6800000000000005,0.6800000000000005
175,1.2530000000000003,1,1.0030000000000003,1.0030000000000003
176,1.555999999999967,1,1.305999999999967,1.305999999999967
177,1.2040000000000006,1,0.9540000000000007,0.9540000000000007
178,0.6540000000000004,1,0.4040000000000003,0.4040000000000003
179,1.0030000000000006,1,0.7530000000000006,0.7530000000000006
180,0.7220000000000004,1,0.47200000000000036,0.47200000000000036
181,1.5409999999999686,1,1.2909999999999686,1.2909999999999686
182,3.25,0,3.0,3.0
183,2.283999999999887,1,2.033999999999887,2.033999999999887
184,2.0179999999999163,1,1.767999999999916,1.767999999999916
185,1.5229999999999706,1,1.2729999999999706,1.2729999999999706
186,1.6149999999999605,1,1.3649999999999605,1.3649999999999605
187,0.6550000000000002,1,0.4050000000000003,0.4050000000000003
188,1.3429999999999904,1,1.0929999999999904,1.0929999999999904
189,0.9200000000000005,1,0.6700000000000005,0.6700000000000005
190,0.7350000000000003,1,0.4850000000000004,0.4850000000000004
191,1.1890000000000007,1,0.9390000000000007,0.9390000000000007
192,2.34799999999988,1,2.09799999999988,2.09799999999988
193,0.4970000000000002,1,0.2470000000000002,0.2470000000000002
194,0.7690000000000003,1,0.5190000000000003,0.5190000000000003
195,1.8209999999999378,1,1.5709999999999378,1.5709999999999378
196,0.6410000000000002,1,0.3910000000000003,0.3910000000000003
197,1.391999999999985,1,1.141999999999985,1.141999999999985
198,0.6230000000000002,1,0.3730000000000003,0.3730000000000003
199,1.301999999999995,1,1.051999999999995,1.051999999999995
200,1.7029999999999508,1,1.4529999999999508,1.4529999999999508
201,0.9290000000000005,1,0.6790000000000005,0.6790000000000005
202,3.202999999999786,1,2.952999999999786,2.952999999999786
203,1.0600000000000005,1,0.8100000000000006,0.8100000000000006
204,1.6979999999999513,1,1.4479999999999513,1.4479999999999513
205,1.6149999999999605,1,1.3649999999999605,1.3649999999999605
206,1.0930000000000006,1,0.8430000000000006,0.8430000000000006
207,1.5399999999999687,1,1.2899999999999687,1.2899999999999687
208,0.7740000000000004,1,0.5240000000000004,0.5240000000000004
209,1.3269999999999922,1,1.0769999999999922,1.0769999999999922
210,1.3239999999999925,1,1.0739999999999925,1.0739999999999925
211,0.4840000000000002,1,0.23400000000000018,0.23400000000000018
212,1.0940000000000007,1,0.8440000000000006,0.8440000000000006
213,2.029999999999915,1,1.7799999999999148,1.7799999999999148
214,1.4519999999999784,1,1.2019999999999784,1.2019999999999784
215,0.9600000000000005,1,0.7100000000000005,0.7100000000000005
216,1.1490000000000007,1,0.8990000000000007,0.8990000000000007
217,1.4539999999999782,1,1.2039999999999782,1.2039999999999782
218,0.5910000000000002,1,0.34100000000000025,0.34100000000000025
219,1.9699999999999214,1,1.7199999999999214,1.7199999999999214
220,0.6230000000000002,1,0.3730000000000003,0.3730000000000003
221,0.9090000000000005,1,0.6590000000000005,0.6590000000000005
222,0.8730000000000004,1,0.6230000000000004,0.6230000000000004
223,1.936999999999925,1,1.686999999999925,1.686999999999925
224,1.5979999999999623,1,1.3479999999999623,1.3479999999999623
225,0.8090000000000004,1,0.5590000000000004,0.5590000000000004
226,1.2170000000000007,1,0.9670000000000007,0.9670000000000007
227,0.7150000000000003,1,0.46500000000000036,0.46500000000000036
228,0.8400000000000004,1,0.5900000000000004,0.5900000000000004
229,1.5029999999999728,1,1.2529999999999728,1.2529999999999728
230,0.7220000000000004,1,0.47200000000000036,0.47200000000000036
231,1.3359999999999912,1,1.0859999999999912,1.0859999999999912
232,0.8510000000000004,1,0.6010000000000004,0.6010000000000004
233,1.2849999999999968,1,1.0349999999999968,1.0349999999999968
234,0.9690000000000005,1,0.7190000000000005,0.7190000000000005
235,1.8329999999999365,1,1.5829999999999365,1.5829999999999365
236,2.282999999999887,1,2.032999999999887,2.032999999999887
237,2.493999999999864,1,2.243999999999864,2.243999999999864
238,0.6650000000000003,1,0.4150000000000003,0.4150000000000003
239,0.5870000000000002,1,0.33700000000000024,0.33700000000000024
240,2.430999999999871,1,2.180999999999871,2.180999999999871
241,0.6910000000000003,1,0.44100000000000034,0.44100000000000034
242,3.25,0,3.0,3.0
243,0.6410000000000002,1,0.3910000000000003,0.3910000000000003
244,1.1740000000000008,1,0.9240000000000007,0.9240000000000007
245,3.0689999999998006,1,2.8189999999998006,2.8189999999998006
246,1.2480000000000007,1,0.9980000000000008,0.9980000000000008
247,0.9460000000000005,1,0.6960000000000005,0.6960000000000005
248,0.5920000000000003,1,0.34200000000000025,0.34200000000000025
249,1.1430000000000007,1,0.8930000000000007,0.8930000000000007
250,2.392999999999875,1,2.142999999999875,2.142999999999875
251,1.2639999999999991,1,1.0139999999999991,1.0139999999999991
252,0.8350000000000004,1,0.5850000000000004,0.5850000000000004
253,0.8680000000000004,1,0.6180000000000004,0.6180000000000004
254,0.7110000000000003,1,0.46100000000000035,0.46100000000000035
255,0.4730000000000002,1,0.22300000000000017,0.22300000000000017
256,3.25,0,3.0,3.0
257,1.2599999999999996,1,1.0099999999999996,1.0099999999999996
258,2.1999999999998963,1,1.949999999999896,1.949999999999896
259,1.0380000000000007,1,0.7880000000000006,0.7880000000000006
260,1.257,1,1.007,1.007
261,3.191999999999787,1,2.941999999999787,2.941999999999787
262,0.8630000000000004,1,0.6130000000000004,0.6130000000000004
263,0.7040000000000004,1,0.45400000000000035,0.45400000000000035
264,1.4949999999999737,1,1.2449999999999737,1.2449999999999737
265,0.8850000000000005,1,0.6350000000000005,0.6350000000000005
266,0.43400000000000016,1,0.18400000000000014,0.18400000000000014
267,1.3999999999999841,1,1.1499999999999841,1.1499999999999841
268,0.6360000000000003,1,0.3860000000000003,0.3860000000000003
269,1.0600000000000005,1,0.8100000000000006,0.8100000000000006
270,1.0190000000000006,1,0.7690000000000006,0.7690000000000006
271,0.7600000000000003,1,0.5100000000000003,0.5100000000000003
272,0.8710000000000004,1,0.6210000000000004,0.6210000000000004
273,0.9960000000000006,1,0.7460000000000006,0.7460000000000006
274,0.8370000000000004,1,0.5870000000000004,0.5870000000000004
275,0.7480000000000004,1,0.4980000000000004,0.4980000000000004
276,1.3709999999999873,1,1.1209999999999873,1.1209999999999873
277,0.9010000000000005,1,0.6510000000000005,0.6510000000000005
278,1.8159999999999383,1,1.5659999999999383,1.5659999999999383
279,0.8440000000000004,1,0.5940000000000004,0.5940000000000004
280,0.9190000000000005,1,0.6690000000000005,0.6690000000000005
281,0.3830000000000001,1,0.1330000000000001,0.1330000000000001
282,0.6240000000000003,1,0.3740000000000003,0.3740000000000003
283,1.563999999999966,1,1.313999999999966,1.313999999999966
284,1.1640000000000006,1,0.9140000000000007,0.9140000000000007
285,1.0860000000000007,1,0.8360000000000006,0.8360000000000006
286,3.25,0,3.0,3.0
287,1.536999999999969,1,1.286999999999969,1.286999999999969
288,0.6010000000000002,1,0.35100000000000026,0.35100000000000026
289,0.7880000000000004,1,0.5380000000000004,0.5380000000000004
290,0.5070000000000001,1,0.2570000000000002,0.2570000000000002
291,1.98199999999992,1,1.73199999999992,1.73199999999992
292,2.101999999999907,1,1.8519999999999068,1.8519999999999068
293,1.1910000000000007,1,0.9410000000000007,0.9410000000000007
294,0.8010000000000004,1,0.5510000000000004,0.5510000000000004
295,3.25,0,3.0,3.0
296,3.25,0,3.0,3.0
297,1.2799999999999974,1,1.0299999999999974,1.0299999999999974
298,1.4329999999999805,1,1.1829999999999805,1.1829999999999805
299,0.9410000000000005,1,0.6910000000000005,0.6910000000000005
300,0.6370000000000002,1,0.3870000000000003,0.3870000000000003
301,0.9070000000000005,1,0.6570000000000005,0.6570000000000005
302,3.25,0,3.0,3.0
303,1.0060000000000007,1,0.7560000000000006,0.7560000000000006
304,3.25,0,3.0,3.0
305,2.1469999999999017,1,1.8969999999999019,1.8969999999999019
306,0.8950000000000005,1,0.6450000000000005,0.6450000000000005
307,0.9150000000000005,1,0.6650000000000005,0.6650000000000005
308,1.1090000000000007,1,0.8590000000000007,0.8590000000000007
309,0.7870000000000004,1,0.5370000000000004,0.5370000000000004
310,0.8320000000000004,1,0.5820000000000004,0.5820000000000004
311,0.6730000000000003,1,0.4230000000000003,0.4230000000000003
312,0.8140000000000004,1,0.5640000000000004,0.5640000000000004
313,0.8390000000000004,1,0.5890000000000004,0.5890000000000004
314,0.6240000000000003,1,0.3740000000000003,0.3740000000000003
315,0.5470000000000002,1,0.2970000000000002,0.2970000000000002
316,1.8599999999999335,1,1.6099999999999335,1.6099999999999335
317,1.4769999999999757,1,1.2269999999999757,1.2269999999999757
318,3.25,0,3.0,3.0
319,0.5820000000000003,1,0.33200000000000024,0.33200000000000024
320,1.7119999999999498,1,1.4619999999999498,1.4619999999999498
321,1.2989999999999953,1,1.0489999999999953,1.0489999999999953
322,1.7139999999999496,1,1.4639999999999496,1.4639999999999496
323,1.2510000000000006,1,1.0010000000000006,1.0010000000000006
324,0.5350000000000001,1,0.2850000000000002,0.2850000000000002
325,1.1930000000000007,1,0.9430000000000007,0.9430000000000007
326,1.9439999999999242,1,1.6939999999999242,1.6939999999999242
327,3.25,0,3.0,3.0
328,2.963999999999812,1,2.713999999999812,2.713999999999812
329,1.427999999999981,1,1.177999999999981,1.177999999999981
330,1.1510000000000007,1,0.9010000000000007,0.9010000000000007
331,2.0769999999999094,1,1.8269999999999096,1.8269999999999096
332,0.9610000000000005,1,0.7110000000000005,0.7110000000000005
333,1.2080000000000006,1,0.9580000000000007,0.9580000000000007
334,0.5500000000000003,1,0.3000000000000002,0.3000000000000002
335,0.9310000000000005,1,0.6810000000000005,0.6810000000000005
336,0.9920000000000005,1,0.7420000000000005,0.7420000000000005
337,1.8419999999999355,1,1.5919999999999355,1.5919999999999355
338,1.0900000000000007,1,0.8400000000000006,0.8400000000000006
339,0.6760000000000004,1,0.4260000000000003,0.4260000000000003
340,1.1970000000000007,1,0.9470000000000007,0.9470000000000007
341,1.8499999999999346,1,1.5999999999999346,1.5999999999999346
342,1.3349999999999913,1,1.0849999999999913,1.0849999999999913
343,0.4650000000000002,1,0.21500000000000016,0.21500000000000016
344,0.4930000000000002,1,0.2430000000000002,0.2430000000000002
345,0.6750000000000003,1,0.4250000000000003,0.4250000000000003
346,1.3089999999999942,1,1.0589999999999942,1.0589999999999942
347,2.7039999999998408,1,2.4539999999998408,2.4539999999998408
348,0.7270000000000003,1,0.47700000000000037,0.47700000000000037
349,0.5160000000000002,1,0.2660000000000002,0.2660000000000002
350,0.5620000000000003,1,0.3120000000000002,0.3120000000000002
351,0.9700000000000005,1,0.7200000000000005,0.7200000000000005
352,0.9100000000000005,1,0.6600000000000005,0.6600000000000005
353,0.8040000000000004,1,0.5540000000000004,0.5540000000000004
354,1.1570000000000007,1,0.9070000000000007,0.9070000000000007
355,1.0650000000000006,1,0.8150000000000006,0.8150000000000006
356,1.5229999999999706,1,1.2729999999999706,1.2729999999999706
357,1.1750000000000007,1,0.9250000000000007,0.9250000000000007
358,1.590999999999963,1,1.340999999999963,1.340999999999963
359,0.4620000000000002,1,0.21200000000000016,0.21200000000000016
360,0.7390000000000003,1,0.4890000000000004,0.4890000000000004
361,0.6650000000000003,1,0.4150000000000003,0.4150000000000003
362,1.0630000000000006,1,0.8130000000000006,0.8130000000000006
363,1.3969999999999845,1,1.1469999999999845,1.1469999999999845
364,0.6750000000000003,1,0.4250000000000003,0.4250000000000003
365,1.5519999999999674,1,1.3019999999999674,1.3019999999999674
366,1.0350000000000006,1,0.7850000000000006,0.7850000000000006
367,0.9570000000000005,1,0.7070000000000005,0.7070000000000005
368,0.9000000000000005,1,0.6500000000000005,0.6500000000000005
369,1.4899999999999742,1,1.2399999999999742,1.2399999999999742
370,0.7750000000000004,1,0.5250000000000004,0.5250000000000004
371,0.6140000000000003,1,0.36400000000000027,0.36400000000000027
372,0.9680000000000005,1,0.7180000000000005,0.7180000000000005
373,1.4669999999999768,1,1.2169999999999768,1.2169999999999768
374,0.8760000000000004,1,0.6260000000000004,0.6260000000000004
375,1.719999999999949,1,1.469999999999949,1.469999999999949
376,0.5650000000000002,1,0.3150000000000002,0.3150000000000002
377,1.52799999999997,1,1.27799999999997,1.27799999999997
378,2.546999999999858,1,2.296999999999858,2.296999999999858
379,2.3699999999998775,1,2.1199999999998775,2.1199999999998775
380,0.5880000000000003,1,0.33800000000000024,0.33800000000000024
381,0.6300000000000003,1,0.3800000000000003,0.3800000000000003
382,0.8610000000000004,1,0.6110000000000004,0.6110000000000004
383,2.0109999999999166,1,1.7609999999999169,1.7609999999999169
384,0.7180000000000004,1,0.46800000000000036,0.46800000000000036
385,2.0749999999999096,1,1.8249999999999098,1.8249999999999098
386,1.6039999999999617,1,1.3539999999999617,1.3539999999999617
387,1.7239999999999485,1,1.4739999999999485,1.4739999999999485
388,0.7220000000000004,1,0.47200000000000036,0.47200000000000036
389,3.25,0,3.0,3.0
390,1.8109999999999389,1,1.5609999999999389,1.5609999999999389
391,3.25,0,3.0,3.0
392,1.1990000000000007,1,0.9490000000000007,0.9490000000000007
393,0.9230000000000005,1,0.6730000000000005,0.6730000000000005
394,0.6650000000000003,1,0.4150000000000003,0.4150000000000003
395,1.1420000000000008,1,0.8920000000000007,0.8920000000000007
396,0.9210000000000005,1,0.6710000000000005,0.6710000000000005
397,0.9310000000000005,1,0.6810000000000005,0.6810000000000005
398,1.2989999999999953,1,1.0489999999999953,1.0489999999999953
399,1.9769999999999206,1,1.7269999999999206,1.7269999999999206
400,2.393999999999875,1,2.143999999999875,2.143999999999875
401,2.383999999999876,1,2.133999999999876,2.133999999999876
402,1.2160000000000006,1,0.9660000000000007,0.9660000000000007
403,0.7580000000000003,1,0.5080000000000003,0.5080000000000003
404,1.3769999999999867,1,1.1269999999999867,1.1269999999999867
405,1.1330000000000007,1,0.8830000000000007,0.8830000000000007
406,1.5719999999999652,1,1.3219999999999652,1.3219999999999652
407,0.5630000000000002,1,0.3130000000000002,0.3130000000000002
408,1.808999999999939,1,1.558999999999939,1.558999999999939
409,1.0740000000000007,1,0.8240000000000006,0.8240000000000006
410,0.7300000000000004,1,0.48000000000000037,0.48000000000000037
411,0.9910000000000005,1,0.7410000000000005,0.7410000000000005
412,0.6510000000000002,1,0.4010000000000003,0.4010000000000003
413,0.4980000000000002,1,0.2480000000000002,0.2480000000000002
414,0.8410000000000004,1,0.5910000000000004,0.5910000000000004
415,1.9259999999999262,1,1.6759999999999262,1.6759999999999262
416,1.3509999999999895,1,1.1009999999999895,1.1009999999999895
417,0.6070000000000002,1,0.35700000000000026,0.35700000000000026
418,1.873999999999932,1,1.623999999999932,1.623999999999932
419,1.2020000000000008,1,0.9520000000000007,0.9520000000000007
420,3.25,0,3.0,3.0
421,2.375999999999877,1,2.125999999999877,2.125999999999877
422,1.6449999999999572,1,1.3949999999999572,1.3949999999999572
423,1.1090000000000007,1,0.8590000000000007,0.8590000000000007
424,0.8880000000000005,1,0.6380000000000005,0.6380000000000005
425,1.1470000000000007,1,0.8970000000000007,0.8970000000000007
426,0.8660000000000004,1,0.6160000000000004,0.6160000000000004
427,1.2020000000000008,1,0.9520000000000007,0.9520000000000007
428,1.8659999999999328,1,1.6159999999999328,1.6159999999999328
429,0.5050000000000001,1,0.25500000000000017,0.25500000000000017
430,1.273999999999998,1,1.023999999999998,1.023999999999998
431,2.042999999999913,1,1.7929999999999133,1.7929999999999133
432,3.25,0,3.0,3.0
433,0.4510000000000002,1,0.20100000000000015,0.20100000000000015
434,0.8140000000000004,1,0.5640000000000004,0.5640000000000004
435,0.7550000000000003,1,0.5050000000000003,0.5050000000000003
436,0.5040000000000002,1,0.25400000000000017,0.25400000000000017
437,1.1740000000000008,1,0.9240000000000007,0.9240000000000007
438,1.7879999999999414,1,1.5379999999999414,1.5379999999999414
439,0.6430000000000002,1,0.3930000000000003,0.3930000000000003
440,2.2129999999998944,1,1.9629999999998946,1.9629999999998946
441,3.25,0,3.0,3.0
442,1.7119999999999498,1,1.4619999999999498,1.4619999999999498
443,1.7889999999999413,1,1.5389999999999413,1.5389999999999413
444,0.8430000000000004,1,0.5930000000000004,0.5930000000000004
445,0.8540000000000004,1,0.6040000000000004,0.6040000000000004
446,1.4669999999999768,1,1.2169999999999768,1.2169999999999768
447,1.0480000000000005,1,0.7980000000000006,0.7980000000000006
448,1.563999999999966,1,1.313999999999966,1.313999999999966
449,1.1020000000000008,1,0.8520000000000006,0.8520000000000006
450,1.1450000000000007,1,0.8950000000000007,0.8950000000000007
451,1.2180000000000009,1,0.9680000000000007,0.9680000000000007
452,0.8290000000000004,1,0.5790000000000004,0.5790000000000004
453,0.7030000000000003,1,0.45300000000000035,0.45300000000000035
454,3.25,0,3.0,3.0
455,3.25,0,3.0,3.0
456,1.0820000000000007,1,0.8320000000000006,0.8320000000000006
457,1.1940000000000008,1,0.9440000000000007,0.9440000000000007
458,1.292999999999996,1,1.042999999999996,1.042999999999996
459,0.6810000000000003,1,0.4310000000000003,0.4310000000000003
460,0.7370000000000003,1,0.4870000000000004,0.4870000000000004
461,0.7530000000000003,1,0.5030000000000003,0.5030000000000003
462,0.7780000000000004,1,0.5280000000000004,0.5280000000000004
463,0.9090000000000005,1,0.6590000000000005,0.6590000000000005
464,1.1790000000000007,1,0.9290000000000007,0.9290000000000007
465,0.9460000000000005,1,0.6960000000000005,0.6960000000000005
466,0.7810000000000004,1,0.5310000000000004,0.5310000000000004
467,2.5249999999998605,1,2.2749999999998605,2.2749999999998605
468,1.0410000000000006,1,0.7910000000000006,0.7910000000000006
469,1.7049999999999506,1,1.4549999999999506,1.4549999999999506
470,0.7660000000000003,1,0.5160000000000003,0.5160000000000003
471,1.319999999999993,1,1.069999999999993,1.069999999999993
472,1.0110000000000006,1,0.7610000000000006,0.7610000000000006
473,0.5800000000000003,1,0.33000000000000024,0.33000000000000024
474,3.25,0,3.0,3.0
475,1.2639999999999991,1,1.0139999999999991,1.0139999999999991
476,0.4490000000000002,1,0.19900000000000015,0.19900000000000015
477,0.7140000000000004,1,0.46400000000000036,0.46400000000000036
478,0.9110000000000005,1,0.6610000000000005,0.6610000000000005
479,0.5910000000000002,1,0.34100000000000025,0.34100000000000025
480,2.114999999999905,1,1.8649999999999054,1.8649999999999054
481,3.25,0,3.0,3.0
482,0.9070000000000005,1,0.6570000000000005,0.6570000000000005
483,0.8750000000000004,1,0.6250000000000004,0.6250000000000004
484,1.2999999999999952,1,1.0499999999999952,1.0499999999999952
485,1.7049999999999506,1,1.4549999999999506,1.4549999999999506
486,0.8340000000000004,1,0.5840000000000004,0.5840000000000004
487,0.7390000000000003,1,0.4890000000000004,0.4890000000000004
488,3.2489999999997807,1,2.9989999999997807,2.9989999999997807
489,1.755999999999945,1,1.505999999999945,1.505999999999945
490,1.3209999999999928,1,1.0709999999999928,1.0709999999999928
491,0.4750000000000002,1,0.22500000000000017,0.22500000000000017
492,0.8790000000000004,1,0.6290000000000004,0.6290000000000004
493,2.2509999999998906,1,2.0009999999998906,2.0009999999998906
494,1.8399999999999357,1,1.5899999999999357,1.5899999999999357
495,0.9810000000000005,1,0.7310000000000005,0.7310000000000005
496,1.7509999999999455,1,1.5009999999999455,1.5009999999999455
497,2.4419999999998696,1,2.1919999999998696,2.1919999999998696
498,1.454999999999978,1,1.204999999999978,1.204999999999978
499,1.0950000000000006,1,0.8450000000000006,0.8450000000000006
500,2.602999999999852,1,2.352999999999852,2.352999999999852
501,0.9080000000000005,1,0.6580000000000005,0.6580000000000005
502,0.8820000000000005,1,0.6320000000000005,0.6320000000000005
503,0.6730000000000003,1,0.4230000000000003,0.4230000000000003
504,1.2410000000000008,1,0.9910000000000008,0.9910000000000008
505,1.3629999999999882,1,1.1129999999999882,1.1129999999999882
506,0.9520000000000005,1,0.7020000000000005,0.7020000000000005
507,1.1630000000000007,1,0.9130000000000007,0.9130000000000007
508,0.7110000000000003,1,0.46100000000000035,0.46100000000000035
509,1.519999999999971,1,1.269999999999971,1.269999999999971
510,2.211999999999895,1,1.9619999999998947,1.9619999999998947
511,3.1149999999997955,1,2.8649999999997955,2.8649999999997955
512,1.2140000000000009,1,0.9640000000000007,0.9640000000000007
513,1.0460000000000007,1,0.7960000000000006,0.7960000000000006
514,1.2110000000000007,1,0.9610000000000007,0.9610000000000007
515,0.5430000000000001,1,0.2930000000000002,0.2930000000000002
516,1.2619999999999993,1,1.0119999999999993,1.0119999999999993
517,0.8860000000000005,1,0.6360000000000005,0.6360000000000005
518,1.2550000000000001,1,1.0050000000000001,1.0050000000000001
519,0.6840000000000004,1,0.43400000000000033,0.43400000000000033
520,0.7260000000000004,1,0.47600000000000037,0.47600000000000037
521,1.1810000000000007,1,0.9310000000000007,0.9310000000000007
522,0.4730000000000002,1,0.22300000000000017,0.22300000000000017
523,1.4299999999999808,1,1.1799999999999808,1.1799999999999808
524,2.611999999999851,1,2.361999999999851,2.361999999999851
525,0.6550000000000002,1,0.4050000000000003,0.4050000000000003
526,1.8529999999999343,1,1.6029999999999343,1.6029999999999343
527,0.5390000000000001,1,0.2890000000000002,0.2890000000000002
528,0.5810000000000002,1,0.33100000000000024,0.33100000000000024
529,1.5999999999999621,1,1.3499999999999621,1.3499999999999621
530,2.1719999999998993,1,1.9219999999998991,1.9219999999998991
531,0.7520000000000003,1,0.5020000000000003,0.5020000000000003
532,0.3850000000000001,1,0.1350000000000001,0.1350000000000001
533,2.484999999999865,1,2.234999999999865,2.234999999999865
534,2.5519999999998575,1,2.3019999999998575,2.3019999999998575
535,0.9700000000000005,1,0.7200000000000005,0.7200000000000005
536,1.6249999999999594,1,1.3749999999999594,1.3749999999999594
537,1.3079999999999943,1,1.0579999999999943,1.0579999999999943
538,0.7740000000000004,1,0.5240000000000004,0.5240000000000004
539,0.8930000000000005,1,0.6430000000000005,0.6430000000000005
540,0.9150000000000005,1,0.6650000000000005,0.6650000000000005
541,1.1760000000000006,1,0.9260000000000007,0.9260000000000007
542,0.9450000000000005,1,0.6950000000000005,0.6950000000000005
543,0.7990000000000004,1,0.5490000000000004,0.5490000000000004
544,1.4229999999999816,1,1.1729999999999816,1.1729999999999816
545,1.1850000000000007,1,0.9350000000000007,0.9350000000000007
546,1.0070000000000006,1,0.7570000000000006,0.7570000000000006
547,0.8750000000000004,1,0.6250000000000004,0.6250000000000004
548,0.4670000000000002,1,0.21700000000000016,0.21700000000000016
549,1.2430000000000008,1,0.9930000000000008,0.9930000000000008
550,2.1369999999999028,1,1.886999999999903,1.886999999999903
551,0.8380000000000004,1,0.5880000000000004,0.5880000000000004
552,2.5139999999998617,1,2.2639999999998617,2.2639999999998617
553,3.25,0,3.0,3.0
554,0.9960000000000006,1,0.7460000000000006,0.7460000000000006
555,2.729999999999838,1,2.479999999999838,2.479999999999838
556,2.209999999999895,1,1.959999999999895,1.959999999999895
557,0.7450000000000003,1,0.4950000000000004,0.4950000000000004
558,1.4789999999999754,1,1.2289999999999754,1.2289999999999754
559,0.8650000000000004,1,0.6150000000000004,0.6150000000000004
560,2.5359999999998593,1,2.2859999999998593,2.2859999999998593
561,0.6890000000000003,1,0.43900000000000033,0.43900000000000033
562,2.4159999999998725,1,2.1659999999998725,2.1659999999998725
563,2.8219999999998278,1,2.5719999999998278,2.5719999999998278
564,0.7170000000000003,1,0.46700000000000036,0.46700000000000036
565,0.9630000000000005,1,0.7130000000000005,0.7130000000000005
566,0.7360000000000004,1,0.4860000000000004,0.4860000000000004
567,2.312999999999884,1,2.062999999999884,2.062999999999884
568,0.7290000000000003,1,0.47900000000000037,0.47900000000000037
569,0.5960000000000003,1,0.34600000000000025,0.34600000000000025
570,0.9690000000000005,1,0.7190000000000005,0.7190000000000005
571,0.9510000000000005,1,0.7010000000000005,0.7010000000000005
572,1.9889999999999193,1,1.7389999999999193,1.7389999999999193
573,1.2949999999999957,1,1.0449999999999957,1.0449999999999957
574,0.9570000000000005,1,0.7070000000000005,0.7070000000000005
575,0.8530000000000004,1,0.6030000000000004,0.6030000000000004
576,0.6990000000000003,1,0.44900000000000034,0.44900000000000034
577,0.5660000000000003,1,0.3160000000000002,0.3160000000000002
578,0.5710000000000002,1,0.32100000000000023,0.32100000000000023
579,3.0059999999998075,1,2.7559999999998075,2.7559999999998075
580,2.1609999999999,1,1.9109999999999003,1.9109999999999003
581,0.7010000000000003,1,0.45100000000000035,0.45100000000000035
582,1.0850000000000006,1,0.8350000000000006,0.8350000000000006
583,1.1710000000000007,1,0.9210000000000007,0.9210000000000007
584,0.8300000000000004,1,0.5800000000000004,0.5800000000000004
585,0.7120000000000004,1,0.46200000000000035,0.46200000000000035
586,1.5869999999999636,1,1.3369999999999636,1.3369999999999636
587,1.1090000000000007,1,0.8590000000000007,0.8590000000000007
588,0.4610000000000002,1,0.21100000000000016,0.21100000000000016
589,0.5770000000000002,1,0.32700000000000023,0.32700000000000023
590,0.6410000000000002,1,0.3910000000000003,0.3910000000000003
591,1.4659999999999769,1,1.2159999999999769,1.2159999999999769
592,0.9200000000000005,1,0.6700000000000005,0.6700000000000005
593,0.6830000000000003,1,0.43300000000000033,0.43300000000000033
594,1.2889999999999964,1,1.0389999999999964,1.0389999999999964
595,3.25,0,3.0,3.0
596,0.9330000000000005,1,0.6830000000000005,0.6830000000000005
597,1.2400000000000007,1,0.9900000000000008,0.9900000000000008
598,2.666999999999845,1,2.416999999999845,2.416999999999845
599,0.6210000000000002,1,0.3710000000000003,0.3710000000000003
600,0.8650000000000004,1,0.6150000000000004,0.6150000000000004
601,1.0500000000000007,1,0.8000000000000006,0.8000000000000006
602,0.6810000000000003,1,0.4310000000000003,0.4310000000000003
603,0.7980000000000004,1,0.5480000000000004,0.5480000000000004
604,0.5290000000000001,1,0.2790000000000002,0.2790000000000002
605,0.9920000000000005,1,0.7420000000000005,0.7420000000000005
606,0.6320000000000003,1,0.3820000000000003,0.3820000000000003
607,0.9530000000000005,1,0.7030000000000005,0.7030000000000005
608,0.6630000000000003,1,0.4130000000000003,0.4130000000000003
609,1.5419999999999685,1,1.2919999999999685,1.2919999999999685
610,0.8030000000000004,1,0.5530000000000004,0.5530000000000004
611,1.6899999999999522,1,1.4399999999999522,1.4399999999999522
612,0.6820000000000004,1,0.43200000000000033,0.43200000000000033
613,2.920999999999817,1,2.670999999999817,2.670999999999817
614,0.8180000000000004,1,0.5680000000000004,0.5680000000000004
615,0.9220000000000005,1,0.6720000000000005,0.6720000000000005
616,2.3429999999998805,1,2.0929999999998805,2.0929999999998805
617,1.1170000000000007,1,0.8670000000000007,0.8670000000000007
618,1.1820000000000008,1,0.9320000000000007,0.9320000000000007
619,3.25,0,3.0,3.0
620,1.0730000000000006,1,0.8230000000000006,0.8230000000000006
621,1.955999999999923,1,1.705999999999923,1.705999999999923
622,0.5340000000000003,1,0.2840000000000002,0.2840000000000002
623,1.3719999999999872,1,1.1219999999999872,1.1219999999999872
624,0.9180000000000005,1,0.6680000000000005,0.6680000000000005
625,0.6990000000000003,1,0.44900000000000034,0.44900000000000034
626,1.0380000000000007,1,0.7880000000000006,0.7880000000000006
627,1.1660000000000008,1,0.9160000000000007,0.9160000000000007
628,0.9040000000000005,1,0.6540000000000005,0.6540000000000005
629,1.0830000000000006,1,0.8330000000000006,0.8330000000000006
630,1.1820000000000008,1,0.9320000000000007,0.9320000000000007
631,1.310999999999994,1,1.060999999999994,1.060999999999994
632,1.4089999999999832,1,1.1589999999999832,1.1589999999999832
633,1.1490000000000007,1,0.8990000000000007,0.8990000000000007
634,0.9490000000000005,1,0.6990000000000005,0.6990000000000005
635,0.9520000000000005,1,0.7020000000000005,0.7020000000000005
636,0.7840000000000004,1,0.5340000000000004,0.5340000000000004
637,0.5090000000000001,1,0.2590000000000002,0.2590000000000002
638,1.2260000000000009,1,0.9760000000000008,0.9760000000000008
639,3.25,0,3.0,3.0
640,0.9470000000000005,1,0.6970000000000005,0.6970000000000005
641,0.7560000000000003,1,0.5060000000000003,0.5060000000000003
642,0.5440000000000003,1,0.2940000000000002,0.2940000000000002
643,0.9690000000000005,1,0.7190000000000005,0.7190000000000005
644,0.6680000000000004,1,0.4180000000000003,0.4180000000000003
645,1.2120000000000006,1,0.9620000000000007,0.9620000000000007
646,0.9980000000000006,1,0.7480000000000006,0.7480000000000006
647,3.217999999999784,1,2.967999999999784,2.967999999999784
648,0.6280000000000003,1,0.3780000000000003,0.3780000000000003
649,0.8510000000000004,1,0.6010000000000004,0.6010000000000004
650,1.3059999999999945,1,1.0559999999999945,1.0559999999999945
651,0.6850000000000003,1,0.43500000000000033,0.43500000000000033
652,0.9820000000000005,1,0.7320000000000005,0.7320000000000005
653,0.6490000000000002,1,0.3990000000000003,0.3990000000000003
654,0.6910000000000003,1,0.44100000000000034,0.44100000000000034
655,0.6810000000000003,1,0.4310000000000003,0.4310000000000003
656,0.7380000000000004,1,0.4880000000000004,0.4880000000000004
657,1.0190000000000006,1,0.7690000000000006,0.7690000000000006
658,2.3259999999998824,1,2.0759999999998824,2.0759999999998824
659,1.2679999999999987,1,1.0179999999999987,1.0179999999999987
660,0.8720000000000004,1,0.6220000000000004,0.6220000000000004
661,1.0170000000000006,1,0.7670000000000006,0.7670000000000006
662,1.2190000000000007,1,0.9690000000000007,0.9690000000000007
663,0.7330000000000003,1,0.4830000000000004,0.4830000000000004
664,0.6300000000000003,1,0.3800000000000003,0.3800000000000003
665,3.0319999999998046,1,2.7819999999998046,2.7819999999998046
666,1.492999999999974,1,1.242999999999974,1.242999999999974
667,2.0319999999999148,1,1.7819999999999145,1.7819999999999145
668,0.7930000000000004,1,0.5430000000000004,0.5430000000000004
669,0.7090000000000003,1,0.45900000000000035,0.45900000000000035
670,0.7200000000000004,1,0.47000000000000036,0.47000000000000036
671,3.25,0,3.0,3.0
672,0.6050000000000002,1,0.35500000000000026,0.35500000000000026
673,0.7600000000000003,1,0.5100000000000003,0.5100000000000003
674,1.5689999999999655,1,1.3189999999999655,1.3189999999999655
675,1.0810000000000006,1,0.8310000000000006,0.8310000000000006
676,1.0670000000000006,1,0.8170000000000006,0.8170000000000006
677,0.7140000000000004,1,0.46400000000000036,0.46400000000000036
678,1.9409999999999246,1,1.6909999999999246,1.6909999999999246
679,1.1890000000000007,1,0.9390000000000007,0.9390000000000007
680,0.6960000000000004,1,0.44600000000000034,0.44600000000000034
681,0.9270000000000005,1,0.6770000000000005,0.6770000000000005
682,1.817999999999938,1,1.567999999999938,1.567999999999938
683,1.1240000000000006,1,0.8740000000000007,0.8740000000000007
684,2.7709999999998334,1,2.5209999999998334,2.5209999999998334
685,0.40400000000000014,1,0.1540000000000001,0.1540000000000001
686,0.5620000000000003,1,0.3120000000000002,0.3120000000000002
687,2.0179999999999163,1,1.767999999999916,1.767999999999916
688,0.4940000000000002,1,0.2440000000000002,0.2440000000000002
689,0.8880000000000005,1,0.6380000000000005,0.6380000000000005
690,0.7380000000000004,1,0.4880000000000004,0.4880000000000004
691,0.42500000000000016,1,0.17500000000000013,0.17500000000000013
692,1.2210000000000008,1,0.9710000000000008,0.9710000000000008
693,0.9740000000000005,1,0.7240000000000005,0.7240000000000005
694,1.4059999999999835,1,1.1559999999999835,1.1559999999999835
695,3.026999999999805,1,2.776999999999805,2.776999999999805
696,2.474999999999866,1,2.224999999999866,2.224999999999866
697,0.44000000000000017,1,0.19000000000000014,0.19000000000000014
698,1.4029999999999838,1,1.1529999999999838,1.1529999999999838
699,0.5730000000000002,1,0.32300000000000023,0.32300000000000023
700,2.8449999999998252,1,2.5949999999998252,2.5949999999998252
701,0.6230000000000002,1,0.3730000000000003,0.3730000000000003
702,0.8050000000000004,1,0.5550000000000004,0.5550000000000004
703,0.7670000000000003,1,0.5170000000000003,0.5170000000000003
704,3.25,0,3.0,3.0
705,1.1950000000000007,1,0.9450000000000007,0.9450000000000007
706,1.4089999999999832,1,1.1589999999999832,1.1589999999999832
707,0.7440000000000004,1,0.4940000000000004,0.4940000000000004
708,1.3719999999999872,1,1.1219999999999872,1.1219999999999872
709,1.4089999999999832,1,1.1589999999999832,1.1589999999999832
710,3.228999999999783,1,2.978999999999783,2.978999999999783
711,0.7630000000000003,1,0.5130000000000003,0.5130000000000003
712,1.6249999999999594,1,1.3749999999999594,1.3749999999999594
713,1.1000000000000005,1,0.8500000000000006,0.8500000000000006
714,1.727999999999948,1,1.477999999999948,1.477999999999948
715,0.8910000000000005,1,0.6410000000000005,0.6410000000000005
716,1.0450000000000006,1,0.7950000000000006,0.7950000000000006
717,0.9340000000000005,1,0.6840000000000005,0.6840000000000005
718,0.4960000000000002,1,0.2460000000000002,0.2460000000000002
719,1.6219999999999597,1,1.3719999999999597,1.3719999999999597
720,2.5159999999998615,1,2.2659999999998615,2.2659999999998615
721,1.3889999999999854,1,1.1389999999999854,1.1389999999999854
722,1.1440000000000006,1,0.8940000000000007,0.8940000000000007
723,0.6540000000000004,1,0.4040000000000003,0.4040000000000003
724,2.599999999999852,1,2.349999999999852,2.349999999999852
725,0.4470000000000002,1,0.19700000000000015,0.19700000000000015
726,1.0040000000000004,1,0.7540000000000006,0.7540000000000006
727,2.866999999999823,1,2.616999999999823,2.616999999999823
728,2.1689999999998992,1,1.9189999999998995,1.9189999999998995
729,0.6790000000000003,1,0.4290000000000003,0.4290000000000003
730,0.8390000000000004,1,0.5890000000000004,0.5890000000000004
731,1.610999999999961,1,1.360999999999961,1.360999999999961
732,1.663999999999955,1,1.413999999999955,1.413999999999955
733,0.6420000000000003,1,0.3920000000000003,0.3920000000000003
734,0.8790000000000004,1,0.6290000000000004,0.6290000000000004
735,2.1609999999999,1,1.9109999999999003,1.9109999999999003
736,0.6280000000000003,1,0.3780000000000003,0.3780000000000003
737,1.5059999999999725,1,1.2559999999999725,1.2559999999999725
738,0.8380000000000004,1,0.5880000000000004,0.5880000000000004
739,1.2939999999999958,1,1.0439999999999958,1.0439999999999958
740,0.6800000000000004,1,0.4300000000000003,0.4300000000000003
741,0.5200000000000002,1,0.2700000000000002,0.2700000000000002
742,0.5780000000000003,1,0.32800000000000024,0.32800000000000024
743,1.0310000000000006,1,0.7810000000000006,0.7810000000000006
744,1.0960000000000005,1,0.8460000000000006,0.8460000000000006
745,1.257,1,1.007,1.007
746,2.147999999999902,1,1.8979999999999018,1.8979999999999018
747,1.963999999999922,1,1.713999999999922,1.713999999999922
748,0.6730000000000003,1,0.4230000000000003,0.4230000000000003
749,0.8120000000000004,1,0.5620000000000004,0.5620000000000004
750,0.5920000000000003,1,0.34200000000000025,0.34200000000000025
751,0.7450000000000003,1,0.4950000000000004,0.4950000000000004
752,0.6680000000000004,1,0.4180000000000003,0.4180000000000003
753,1.9319999999999256,1,1.6819999999999256,1.6819999999999256
754,1.5869999999999636,1,1.3369999999999636,1.3369999999999636
755,0.8770000000000004,1,0.6270000000000004,0.6270000000000004
756,1.363999999999988,1,1.113999999999988,1.113999999999988
757,2.1979999999998965,1,1.9479999999998963,1.9479999999998963
758,0.4830000000000002,1,0.23300000000000018,0.23300000000000018
759,0.5010000000000001,1,0.25100000000000017,0.25100000000000017
760,0.7320000000000004,1,0.4820000000000004,0.4820000000000004
761,1.1890000000000007,1,0.9390000000000007,0.9390000000000007
762,0.9630000000000005,1,0.7130000000000005,0.7130000000000005
763,0.5230000000000001,1,0.2730000000000002,0.2730000000000002
764,0.6280000000000003,1,0.3780000000000003,0.3780000000000003
765,1.8109999999999389,1,1.5609999999999389,1.5609999999999389
766,1.0150000000000006,1,0.7650000000000006,0.7650000000000006
767,1.2639999999999991,1,1.0139999999999991,1.0139999999999991
768,1.500999999999973,1,1.250999999999973,1.250999999999973
769,1.7059999999999504,1,1.4559999999999504,1.4559999999999504
770,0.8690000000000004,1,0.6190000000000004,0.6190000000000004
771,1.1170000000000007,1,0.8670000000000007,0.8670000000000007
772,0.8010000000000004,1,0.5510000000000004,0.5510000000000004
773,0.7370000000000003,1,0.4870000000000004,0.4870000000000004
774,1.7759999999999427,1,1.5259999999999427,1.5259999999999427
775,0.8340000000000004,1,0.5840000000000004,0.5840000000000004
776,1.9389999999999248,1,1.6889999999999248,1.6889999999999248
777,1.6589999999999556,1,1.4089999999999556,1.4089999999999556
778,1.0510000000000006,1,0.8010000000000006,0.8010000000000006
779,1.1720000000000006,1,0.9220000000000007,0.9220000000000007
780,1.5779999999999645,1,1.3279999999999645,1.3279999999999645
781,1.3159999999999934,1,1.0659999999999934,1.0659999999999934
782,2.0409999999999133,1,1.7909999999999136,1.7909999999999136
783,0.8230000000000004,1,0.5730000000000004,0.5730000000000004
784,3.0439999999998033,1,2.7939999999998033,2.7939999999998033
785,3.000999999999808,1,2.750999999999808,2.750999999999808
786,1.0010000000000006,1,0.7510000000000006,0.7510000000000006
787,0.5580000000000003,1,0.3080000000000002,0.3080000000000002
788,2.5969999999998525,1,2.3469999999998525,2.3469999999998525
789,0.5700000000000003,1,0.32000000000000023,0.32000000000000023
790,0.5790000000000002,1,0.32900000000000024,0.32900000000000024
791,0.7030000000000003,1,0.45300000000000035,0.45300000000000035
792,0.7410000000000003,1,0.4910000000000004,0.4910000000000004
793,0.9660000000000005,1,0.7160000000000005,0.7160000000000005
794,1.3209999999999928,1,1.0709999999999928,1.0709999999999928
795,2.294999999999886,1,2.044999999999886,2.044999999999886
796,2.0229999999999153,1,1.7729999999999155,1.7729999999999155
797,1.1220000000000008,1,0.8720000000000007,0.8720000000000007
798,1.5979999999999623,1,1.3479999999999623,1.3479999999999623
799,1.464999999999977,1,1.214999999999977,1.214999999999977
800,1.3059999999999945,1,1.0559999999999945,1.0559999999999945
801,0.9770000000000005,1,0.7270000000000005,0.7270000000000005
802,0.7870000000000004,1,0.5370000000000004,0.5370000000000004
803,0.9950000000000006,1,0.7450000000000006,0.7450000000000006
804,2.285999999999887,1,2.035999999999887,2.035999999999887
805,2.2029999999998955,1,1.9529999999998957,1.9529999999998957
806,1.7499999999999456,1,1.4999999999999456,1.4999999999999456
807,1.8049999999999395,1,1.5549999999999395,1.5549999999999395
808,1.3879999999999855,1,1.1379999999999855,1.1379999999999855
809,0.9670000000000005,1,0.7170000000000005,0.7170000000000005
810,0.6220000000000003,1,0.3720000000000003,0.3720000000000003
811,1.1720000000000006,1,0.9220000000000007,0.9220000000000007
812,0.9520000000000005,1,0.7020000000000005,0.7020000000000005
813,2.7409999999998367,1,2.4909999999998367,2.4909999999998367
814,0.6870000000000003,1,0.43700000000000033,0.43700000000000033
815,1.0440000000000005,1,0.7940000000000006,0.7940000000000006
816,3.101999999999797,1,2.851999999999797,2.851999999999797
817,0.9810000000000005,1,0.7310000000000005,0.7310000000000005
818,1.8689999999999325,1,1.6189999999999325,1.6189999999999325
819,1.7869999999999415,1,1.5369999999999415,1.5369999999999415
820,0.7890000000000004,1,0.5390000000000004,0.5390000000000004
821,0.4610000000000002,1,0.21100000000000016,0.21100000000000016
822,0.6210000000000002,1,0.3710000000000003,0.3710000000000003
823,0.9180000000000005,1,0.6680000000000005,0.6680000000000005
824,2.9219999999998167,1,2.6719999999998167,2.6719999999998167
825,1.2530000000000003,1,1.0030000000000003,1.0030000000000003
826,2.0509999999999122,1,1.8009999999999124,1.8009999999999124
827,2.693999999999842,1,2.443999999999842,2.443999999999842
828,2.4409999999998697,1,2.1909999999998697,2.1909999999998697
829,1.719999999999949,1,1.469999999999949,1.469999999999949
830,1.2180000000000009,1,0.9680000000000007,0.9680000000000007
831,1.1940000000000008,1,0.9440000000000007,0.9440000000000007
832,0.8240000000000004,1,0.5740000000000004,0.5740000000000004
833,0.8600000000000004,1,0.6100000000000004,0.6100000000000004
834,0.5240000000000002,1,0.2740000000000002,0.2740000000000002
835,2.554999999999857,1,2.304999999999857,2.304999999999857
836,0.6470000000000002,1,0.3970000000000003,0.3970000000000003
837,0.5850000000000002,1,0.33500000000000024,0.33500000000000024
838,1.0810000000000006,1,0.8310000000000006,0.8310000000000006
839,0.6830000000000003,1,0.43300000000000033,0.43300000000000033
840,1.9049999999999285,1,1.6549999999999285,1.6549999999999285
841,0.9830000000000005,1,0.7330000000000005,0.7330000000000005
842,0.9470000000000005,1,0.6970000000000005,0.6970000000000005
843,0.9670000000000005,1,0.7170000000000005,0.7170000000000005
844,0.8900000000000005,1,0.6400000000000005,0.6400000000000005
845,0.6930000000000003,1,0.44300000000000034,0.44300000000000034
846,2.032999999999914,1,1.7829999999999144,1.7829999999999144
847,0.43700000000000017,1,0.18700000000000014,0.18700000000000014
848,2.285999999999887,1,2.035999999999887,2.035999999999887
849,0.9160000000000005,1,0.6660000000000005,0.6660000000000005
850,1.2589999999999997,1,1.0089999999999997,1.0089999999999997
851,1.1740000000000008,1,0.9240000000000007,0.9240000000000007
852,1.9889999999999193,1,1.7389999999999193,1.7389999999999193
853,1.3969999999999845,1,1.1469999999999845,1.1469999999999845
854,0.7140000000000004,1,0.46400000000000036,0.46400000000000036
855,1.6399999999999577,1,1.3899999999999577,1.3899999999999577
856,2.6799999999998434,1,2.4299999999998434,2.4299999999998434
857,1.2709999999999984,1,1.0209999999999984,1.0209999999999984
858,0.8550000000000004,1,0.6050000000000004,0.6050000000000004
859,0.6730000000000003,1,0.4230000000000003,0.4230000000000003
860,1.0180000000000007,1,0.7680000000000006,0.7680000000000006
861,0.7110000000000003,1,0.46100000000000035,0.46100000000000035
862,2.3509999999998796,1,2.1009999999998796,2.1009999999998796
863,0.7200000000000004,1,0.47000000000000036,0.47000000000000036
864,1.3259999999999923,1,1.0759999999999923,1.0759999999999923
865,2.918999999999817,1,2.668999999999817,2.668999999999817
866,0.9810000000000005,1,0.7310000000000005,0.7310000000000005
867,1.427999999999981,1,1.177999999999981,1.177999999999981
868,0.8430000000000004,1,0.5930000000000004,0.5930000000000004
869,2.944999999999814,1,2.694999999999814,2.694999999999814
870,1.8109999999999389,1,1.5609999999999389,1.5609999999999389
871,0.7790000000000004,1,0.5290000000000004,0.5290000000000004
872,1.3039999999999947,1,1.0539999999999947,1.0539999999999947
873,1.8489999999999347,1,1.5989999999999347,1.5989999999999347
874,1.5209999999999708,1,1.2709999999999708,1.2709999999999708
875,2.8809999999998213,1,2.6309999999998213,2.6309999999998213
876,1.3799999999999863,1,1.1299999999999863,1.1299999999999863
877,0.7840000000000004,1,0.5340000000000004,0.5340000000000004
878,1.9029999999999287,1,1.6529999999999287,1.6529999999999287
879,2.0819999999999093,1,1.831999999999909,1.831999999999909
880,2.7599999999998346,1,2.5099999999998346,2.5099999999998346
881,1.2619999999999993,1,1.0119999999999993,1.0119999999999993
882,0.5790000000000002,1,0.32900000000000024,0.32900000000000024
883,0.9550000000000005,1,0.7050000000000005,0.7050000000000005
884,0.7520000000000003,1,0.5020000000000003,0.5020000000000003
885,1.0920000000000005,1,0.8420000000000006,0.8420000000000006
886,0.7240000000000004,1,0.47400000000000037,0.47400000000000037
887,3.144999999999792,1,2.894999999999792,2.894999999999792
888,1.328999999999992,1,1.078999999999992,1.078999999999992
889,0.7030000000000003,1,0.45300000000000035,0.45300000000000035
890,0.9520000000000005,1,0.7020000000000005,0.7020000000000005
891,0.8970000000000005,1,0.6470000000000005,0.6470000000000005
892,2.548999999999858,1,2.298999999999858,2.298999999999858
893,0.9090000000000005,1,0.6590000000000005,0.6590000000000005
894,3.25,0,3.0,3.0
895,3.25,0,3.0,3.0
896,1.655999999999956,1,1.405999999999956,1.405999999999956
897,0.4780000000000002,1,0.22800000000000017,0.22800000000000017
898,1.6849999999999528,1,1.4349999999999528,1.4349999999999528
899,2.8599999999998236,1,2.6099999999998236,2.6099999999998236
900,1.2689999999999986,1,1.0189999999999986,1.0189999999999986
901,0.8130000000000004,1,0.5630000000000004,0.5630000000000004
902,0.6200000000000003,1,0.3700000000000003,0.3700000000000003
903,1.0960000000000005,1,0.8460000000000006,0.8460000000000006
904,2.2489999999998904,1,1.9989999999998906,1.9989999999998906
905,2.011999999999917,1,1.7619999999999167,1.7619999999999167
906,1.9129999999999276,1,1.6629999999999276,1.6629999999999276
907,2.675999999999844,1,2.425999999999844,2.425999999999844
908,3.229999999999783,1,2.979999999999783,2.979999999999783
909,1.1300000000000008,1,0.8800000000000007,0.8800000000000007
910,2.557999999999857,1,2.307999999999857,2.307999999999857
911,1.0680000000000005,1,0.8180000000000006,0.8180000000000006
912,0.7890000000000004,1,0.5390000000000004,0.5390000000000004
913,0.4890000000000002,1,0.23900000000000018,0.23900000000000018
914,1.4519999999999784,1,1.2019999999999784,1.2019999999999784
915,1.52799999999997,1,1.27799999999997,1.27799999999997
916,2.3339999999998815,1,2.0839999999998815,2.0839999999998815
917,1.3759999999999868,1,1.1259999999999868,1.1259999999999868
918,1.3359999999999912,1,1.0859999999999912,1.0859999999999912
919,0.8320000000000004,1,0.5820000000000004,0.5820000000000004
920,0.7800000000000004,1,0.5300000000000004,0.5300000000000004
921,0.8970000000000005,1,0.6470000000000005,0.6470000000000005
922,0.7560000000000003,1,0.5060000000000003,0.5060000000000003
923,1.446999999999979,1,1.196999999999979,1.196999999999979
924,2.810999999999829,1,2.560999999999829,2.560999999999829
925,0.8300000000000004,1,0.5800000000000004,0.5800000000000004
926,1.536999999999969,1,1.286999999999969,1.286999999999969
927,1.1200000000000006,1,0.8700000000000007,0.8700000000000007
928,2.9129999999998177,1,2.6629999999998177,2.6629999999998177
929,0.9560000000000005,1,0.7060000000000005,0.7060000000000005
930,2.8159999999998284,1,2.5659999999998284,2.5659999999998284
931,0.6180000000000003,1,0.36800000000000027,0.36800000000000027
932,0.7910000000000004,1,0.5410000000000004,0.5410000000000004
933,2.7949999999998307,1,2.5449999999998307,2.5449999999998307
934,0.8150000000000004,1,0.5650000000000004,0.5650000000000004
935,1.4139999999999826,1,1.1639999999999826,1.1639999999999826
936,1.256,1,1.006,1.006
937,0.7270000000000003,1,0.47700000000000037,0.47700000000000037
938,1.0080000000000005,1,0.7580000000000006,0.7580000000000006
939,1.764999999999944,1,1.514999999999944,1.514999999999944
940,1.6509999999999565,1,1.4009999999999565,1.4009999999999565
941,1.0420000000000007,1,0.7920000000000006,0.7920000000000006
942,0.8490000000000004,1,0.5990000000000004,0.5990000000000004
943,0.7150000000000003,1,0.46500000000000036,0.46500000000000036
944,2.9619999999998123,1,2.7119999999998123,2.7119999999998123
945,0.6140000000000003,1,0.36400000000000027,0.36400000000000027
946,1.0630000000000006,1,0.8130000000000006,0.8130000000000006
947,0.7790000000000004,1,0.5290000000000004,0.5290000000000004
948,0.9150000000000005,1,0.6650000000000005,0.6650000000000005
949,1.1960000000000006,1,0.9460000000000007,0.9460000000000007
950,0.6040000000000003,1,0.35400000000000026,0.35400000000000026
951,1.1240000000000006,1,0.8740000000000007,0.8740000000000007
952,1.2859999999999967,1,1.0359999999999967,1.0359999999999967
953,0.7850000000000004,1,0.5350000000000004,0.5350000000000004
954,1.0450000000000006,1,0.7950000000000006,0.7950000000000006
955,1.4269999999999812,1,1.1769999999999812,1.1769999999999812
956,0.9750000000000005,1,0.7250000000000005,0.7250000000000005
957,2.0899999999999084,1,1.8399999999999082,1.8399999999999082
958,0.9360000000000005,1,0.6860000000000005,0.6860000000000005
959,1.2050000000000007,1,0.9550000000000007,0.9550000000000007
960,2.7989999999998303,1,2.5489999999998303,2.5489999999998303
961,1.1120000000000005,1,0.8620000000000007,0.8620000000000007
962,0.8190000000000004,1,0.5690000000000004,0.5690000000000004
963,2.1049999999999063,1,1.8549999999999065,1.8549999999999065
964,0.43800000000000017,1,0.18800000000000014,0.18800000000000014
965,0.6660000000000004,1,0.4160000000000003,0.4160000000000003
966,1.0400000000000005,1,0.7900000000000006,0.7900000000000006
967,0.8410000000000004,1,0.5910000000000004,0.5910000000000004
968,0.9010000000000005,1,0.6510000000000005,0.6510000000000005
969,1.0020000000000007,1,0.7520000000000006,0.7520000000000006
970,1.2030000000000007,1,0.9530000000000007,0.9530000000000007
971,2.375999999999877,1,2.125999999999877,2.125999999999877
972,1.3579999999999888,1,1.1079999999999888,1.1079999999999888
973,2.0159999999999165,1,1.7659999999999163,1.7659999999999163
974,1.6879999999999524,1,1.4379999999999524,1.4379999999999524
975,0.8470000000000004,1,0.5970000000000004,0.5970000000000004
976,3.25,0,3.0,3.0
977,1.1530000000000007,1,0.9030000000000007,0.9030000000000007
978,1.973999999999921,1,1.723999999999921,1.723999999999921
979,1.2370000000000008,1,0.9870000000000008,0.9870000000000008
980,0.8800000000000004,1,0.6300000000000004,0.6300000000000004
981,1.2400000000000007,1,0.9900000000000008,0.9900000000000008
982,1.1080000000000005,1,0.8580000000000007,0.8580000000000007
983,0.8620000000000004,1,0.6120000000000004,0.6120000000000004
984,0.9440000000000005,1,0.6940000000000005,0.6940000000000005
985,0.7460000000000004,1,0.4960000000000004,0.4960000000000004
986,1.2879999999999965,1,1.0379999999999965,1.0379999999999965
987,2.374999999999877,1,2.124999999999877,2.124999999999877
988,1.0160000000000005,1,0.7660000000000006,0.7660000000000006
989,1.0370000000000006,1,0.7870000000000006,0.7870000000000006
990,0.8170000000000004,1,0.5670000000000004,0.5670000000000004
991,1.274999999999998,1,1.024999999999998,1.024999999999998
992,2.1639999999999002,1,1.9139999999999,1.9139999999999
993,0.7670000000000003,1,0.5170000000000003,0.5170000000000003
994,0.8740000000000004,1,0.6240000000000004,0.6240000000000004
995,0.8030000000000004,1,0.5530000000000004,0.5530000000000004
996,0.6180000000000003,1,0.36800000000000027,0.36800000000000027
997,0.8150000000000004,1,0.5650000000000004,0.5650000000000004
998,2.647999999999847,1,2.397999999999847,2.397999999999847
999,1.1820000000000008,1,0.9320000000000007,0.9320000000000007
1000,0.5150000000000001,1,0.2650000000000002,0.2650000000000002
1001,0.7800000000000004,1,0.5300000000000004,0.5300000000000004
1002,1.1930000000000007,1,0.9430000000000007,0.9430000000000007
1003,0.9650000000000005,1,0.7150000000000005,0.7150000000000005
1004,0.8330000000000004,1,0.5830000000000004,0.5830000000000004
1005,1.1570000000000007,1,0.9070000000000007,0.9070000000000007
1006,1.9359999999999251,1,1.6859999999999251,1.6859999999999251
1007,2.8879999999998205,1,2.6379999999998205,2.6379999999998205
1008,0.9390000000000005,1,0.6890000000000005,0.6890000000000005
1009,0.7710000000000004,1,0.5210000000000004,0.5210000000000004
1010,2.190999999999897,1,1.940999999999897,1.940999999999897
1011,0.7290000000000003,1,0.47900000000000037,0.47900000000000037
1012,0.9020000000000005,1,0.6520000000000005,0.6520000000000005
1013,1.0520000000000005,1,0.8020000000000006,0.8020000000000006
1014,1.6209999999999598,1,1.3709999999999598,1.3709999999999598
1015,1.5209999999999708,1,1.2709999999999708,1.2709999999999708
1016,0.9280000000000005,1,0.6780000000000005,0.6780000000000005
1017,1.1030000000000006,1,0.8530000000000006,0.8530000000000006
1018,0.9820000000000005,1,0.7320000000000005,0.7320000000000005
1019,0.5890000000000002,1,0.33900000000000025,0.33900000000000025
1020,0.8640000000000004,1,0.6140000000000004,0.6140000000000004
1021,2.4159999999998725,1,2.1659999999998725,2.1659999999998725
1022,2.0779999999999097,1,1.8279999999999095,1.8279999999999095
1023,1.837999999999936,1,1.587999999999936,1.587999999999936
1024,2.0519999999999126,1,1.8019999999999123,1.8019999999999123
1025,0.9490000000000005,1,0.6990000000000005,0.6990000000000005
1026,0.5600000000000003,1,0.3100000000000002,0.3100000000000002
1027,1.1150000000000007,1,0.8650000000000007,0.8650000000000007
1028,0.8180000000000004,1,0.5680000000000004,0.5680000000000004
1029,0.6660000000000004,1,0.4160000000000003,0.4160000000000003
1030,0.6680000000000004,1,0.4180000000000003,0.4180000000000003
1031,0.6490000000000002,1,0.3990000000000003,0.3990000000000003
1032,0.9250000000000005,1,0.6750000000000005,0.6750000000000005
1033,0.6630000000000003,1,0.4130000000000003,0.4130000000000003
1034,1.52899999999997,1,1.27899999999997,1.27899999999997
1035,1.454999999999978,1,1.204999999999978,1.204999999999978
1036,1.5449999999999682,1,1.2949999999999682,1.2949999999999682
1037,0.4450000000000002,1,0.19500000000000015,0.19500000000000015
1038,3.045999999999803,1,2.795999999999803,2.795999999999803
1039,1.664999999999955,1,1.414999999999955,1.414999999999955
1040,1.7669999999999437,1,1.5169999999999437,1.5169999999999437
1041,2.5899999999998533,1,2.3399999999998533,2.3399999999998533
1042,2.029999999999915,1,1.7799999999999148,1.7799999999999148
1043,1.0410000000000006,1,0.7910000000000006,0.7910000000000006
1044,1.581999999999964,1,1.331999999999964,1.331999999999964
1045,0.7650000000000003,1,0.5150000000000003,0.5150000000000003
1046,0.8510000000000004,1,0.6010000000000004,0.6010000000000004
1047,0.6830000000000003,1,0.43300000000000033,0.43300000000000033
1048,0.8860000000000005,1,0.6360000000000005,0.6360000000000005
1049,2.009999999999917,1,1.759999999999917,1.759999999999917
1050,1.0130000000000006,1,0.7630000000000006,0.7630000000000006
1051,0.7290000000000003,1,0.47900000000000037,0.47900000000000037
1052,2.114999999999905,1,1.8649999999999054,1.8649999999999054
1053,0.6280000000000003,1,0.3780000000000003,0.3780000000000003
1054,1.2410000000000008,1,0.9910000000000008,0.9910000000000008
1055,1.1420000000000008,1,0.8920000000000007,0.8920000000000007
1056,1.0150000000000006,1,0.7650000000000006,0.7650000000000006
1057,1.2579999999999998,1,1.0079999999999998,1.0079999999999998
1058,1.0930000000000006,1,0.8430000000000006,0.8430000000000006
1059,3.25,0,3.0,3.0
1060,2.918999999999817,1,2.668999999999817,2.668999999999817
1061,0.8260000000000004,1,0.5760000000000004,0.5760000000000004
1062,1.1960000000000006,1,0.9460000000000007,0.9460000000000007
1063,1.0490000000000006,1,0.7990000000000006,0.7990000000000006
1064,0.6150000000000002,1,0.36500000000000027,0.36500000000000027
1065,0.6650000000000003,1,0.4150000000000003,0.4150000000000003
1066,1.472999999999976,1,1.222999999999976,1.222999999999976
1067,0.5640000000000003,1,0.3140000000000002,0.3140000000000002
1068,0.8610000000000004,1,0.6110000000000004,0.6110000000000004
1069,3.25,0,3.0,3.0
1070,1.0560000000000005,1,0.8060000000000006,0.8060000000000006
1071,0.8280000000000004,1,0.5780000000000004,0.5780000000000004
1072,1.4949999999999737,1,1.2449999999999737,1.2449999999999737
1073,1.382999999999986,1,1.132999999999986,1.132999999999986
1074,1.0070000000000006,1,0.7570000000000006,0.7570000000000006
1075,1.373999999999987,1,1.123999999999987,1.123999999999987
1076,1.8969999999999294,1,1.6469999999999294,1.6469999999999294
1077,0.6460000000000004,1,0.3960000000000003,0.3960000000000003
1078,1.0040000000000004,1,0.7540000000000006,0.7540000000000006
1079,1.5219999999999707,1,1.2719999999999707,1.2719999999999707
1080,0.6610000000000003,1,0.4110000000000003,0.4110000000000003
1081,0.9110000000000005,1,0.6610000000000005,0.6610000000000005
1082,2.4339999999998705,1,2.1839999999998705,2.1839999999998705
1083,2.7959999999998306,1,2.5459999999998306,2.5459999999998306
1084,0.9460000000000005,1,0.6960000000000005,0.6960000000000005
1085,0.5680000000000003,1,0.3180000000000002,0.3180000000000002
1086,1.0230000000000006,1,0.7730000000000006,0.7730000000000006
1087,0.5990000000000002,1,0.34900000000000025,0.34900000000000025
1088,1.2809999999999973,1,1.0309999999999973,1.0309999999999973
1089,1.1460000000000008,1,0.8960000000000007,0.8960000000000007
1090,1.2400000000000007,1,0.9900000000000008,0.9900000000000008
1091,2.2369999999998917,1,1.986999999999892,1.986999999999892
1092,0.6380000000000003,1,0.3880000000000003,0.3880000000000003
1093,0.8380000000000004,1,0.5880000000000004,0.5880000000000004
1094,1.9479999999999238,1,1.6979999999999238,1.6979999999999238
1095,0.9340000000000005,1,0.6840000000000005,0.6840000000000005
1096,0.8620000000000004,1,0.6120000000000004,0.6120000000000004
1097,1.446999999999979,1,1.196999999999979,1.196999999999979
1098,2.381999999999876,1,2.131999999999876,2.131999999999876
1099,0.6370000000000002,1,0.3870000000000003,0.3870000000000003
1100,0.6140000000000003,1,0.36400000000000027,0.36400000000000027
1101,2.1239999999999046,1,1.8739999999999044,1.8739999999999044
1102,1.3899999999999852,1,1.1399999999999852,1.1399999999999852
1103,0.5640000000000003,1,0.3140000000000002,0.3140000000000002
1104,1.1030000000000006,1,0.8530000000000006,0.8530000000000006
1105,0.3870000000000001,1,0.1370000000000001,0.1370000000000001
1106,0.9570000000000005,1,0.7070000000000005,0.7070000000000005
1107,1.365999999999988,1,1.115999999999988,1.115999999999988
1108,1.973999999999921,1,1.723999999999921,1.723999999999921
1109,2.2129999999998944,1,1.9629999999998946,1.9629999999998946
1110,0.7400000000000004,1,0.4900000000000004,0.4900000000000004
1111,1.34699999999999,1,1.09699999999999,1.09699999999999
1112,0.5720000000000003,1,0.32200000000000023,0.32200000000000023
1113,0.8360000000000004,1,0.5860000000000004,0.5860000000000004
1114,1.1560000000000006,1,0.9060000000000007,0.9060000000000007
1115,1.3999999999999841,1,1.1499999999999841,1.1499999999999841
1116,0.5580000000000003,1,0.3080000000000002,0.3080000000000002
1117,1.3869999999999856,1,1.1369999999999856,1.1369999999999856
1118,0.7000000000000004,1,0.45000000000000034,0.45000000000000034
1119,3.25,0,3.0,3.0
1120,1.900999999999929,1,1.650999999999929,1.650999999999929
1121,1.609999999999961,1,1.359999999999961,1.359999999999961
1122,1.0150000000000006,1,0.7650000000000006,0.7650000000000006
1123,2.2289999999998926,1,1.9789999999998928,1.9789999999998928
1124,0.8850000000000005,1,0.6350000000000005,0.6350000000000005
1125,1.1360000000000006,1,0.8860000000000007,0.8860000000000007
1126,1.363999999999988,1,1.113999999999988,1.113999999999988
1127,1.9409999999999246,1,1.6909999999999246,1.6909999999999246
1128,1.3209999999999928,1,1.0709999999999928,1.0709999999999928
1129,1.0550000000000006,1,0.8050000000000006,0.8050000000000006
1130,2.1049999999999063,1,1.8549999999999065,1.8549999999999065
1131,0.8670000000000004,1,0.6170000000000004,0.6170000000000004
1132,0.6750000000000003,1,0.4250000000000003,0.4250000000000003
1133,0.7260000000000004,1,0.47600000000000037,0.47600000000000037
1134,1.5809999999999642,1,1.3309999999999642,1.3309999999999642
1135,0.5500000000000003,1,0.3000000000000002,0.3000000000000002
1136,0.6520000000000004,1,0.4020000000000003,0.4020000000000003
1137,0.7280000000000004,1,0.47800000000000037,0.47800000000000037
1138,1.418999999999982,1,1.168999999999982,1.168999999999982
1139,0.6800000000000004,1,0.4300000000000003,0.4300000000000003
1140,0.6970000000000003,1,0.44700000000000034,0.44700000000000034
1141,0.8090000000000004,1,0.5590000000000004,0.5590000000000004
1142,1.1680000000000006,1,0.9180000000000007,0.9180000000000007
1143,0.7640000000000003,1,0.5140000000000003,0.5140000000000003
1144,0.8570000000000004,1,0.6070000000000004,0.6070000000000004
1145,0.9790000000000005,1,0.7290000000000005,0.7290000000000005
1146,1.2010000000000007,1,0.9510000000000007,0.9510000000000007
1147,0.8490000000000004,1,0.5990000000000004,0.5990000000000004
1148,0.6530000000000002,1,0.4030000000000003,0.4030000000000003
1149,0.8770000000000004,1,0.6270000000000004,0.6270000000000004
1150,0.8420000000000004,1,0.5920000000000004,0.5920000000000004
1151,0.7500000000000003,1,0.5000000000000003,0.5000000000000003
1152,2.9219999999998167,1,2.6719999999998167,2.6719999999998167
1153,1.1550000000000007,1,0.9050000000000007,0.9050000000000007
1154,1.4769999999999757,1,1.2269999999999757,1.2269999999999757
1155,0.7590000000000003,1,0.5090000000000003,0.5090000000000003
1156,1.4349999999999803,1,1.1849999999999803,1.1849999999999803
1157,0.9790000000000005,1,0.7290000000000005,0.7290000000000005
1158,3.25,0,3.0,3.0
1159,0.6730000000000003,1,0.4230000000000003,0.4230000000000003
1160,0.9440000000000005,1,0.6940000000000005,0.6940000000000005
1161,0.6020000000000003,1,0.35200000000000026,0.35200000000000026
1162,1.1020000000000008,1,0.8520000000000006,0.8520000000000006
1163,0.7950000000000004,1,0.5450000000000004,0.5450000000000004
1164,1.1370000000000007,1,0.8870000000000007,0.8870000000000007
1165,1.5029999999999728,1,1.2529999999999728,1.2529999999999728
1166,2.7809999999998323,1,2.5309999999998323,2.5309999999998323
1167,2.0259999999999154,1,1.7759999999999152,1.7759999999999152
1168,0.5980000000000003,1,0.34800000000000025,0.34800000000000025
1169,0.9780000000000005,1,0.7280000000000005,0.7280000000000005
1170,1.7319999999999476,1,1.4819999999999476,1.4819999999999476
1171,1.3699999999999875,1,1.1199999999999875,1.1199999999999875
1172,3.25,0,3.0,3.0
1173,1.0980000000000008,1,0.8480000000000006,0.8480000000000006
1174,0.4650000000000002,1,0.21500000000000016,0.21500000000000016
1175,1.6889999999999523,1,1.4389999999999523,1.4389999999999523
1176,1.6659999999999549,1,1.4159999999999549,1.4159999999999549
1177,0.9700000000000005,1,0.7200000000000005,0.7200000000000005
1178,3.25,0,3.0,3.0
1179,2.873999999999822,1,2.623999999999822,2.623999999999822
1180,1.3849999999999858,1,1.1349999999999858,1.1349999999999858
1181,1.3709999999999873,1,1.1209999999999873,1.1209999999999873
1182,1.7509999999999455,1,1.5009999999999455,1.5009999999999455
1183,1.7439999999999463,1,1.4939999999999463,1.4939999999999463
1184,3.25,0,3.0,3.0
1185,2.3359999999998813,1,2.0859999999998813,2.0859999999998813
1186,1.945999999999924,1,1.695999999999924,1.695999999999924
1187,3.0529999999998023,1,2.8029999999998023,2.8029999999998023
1188,0.5670000000000002,1,0.3170000000000002,0.3170000000000002
1189,1.3339999999999914,1,1.0839999999999914,1.0839999999999914
1190,0.7320000000000004,1,0.4820000000000004,0.4820000000000004
1191,3.25,0,3.0,3.0
1192,0.8740000000000004,1,0.6240000000000004,0.6240000000000004
1193,1.4759999999999758,1,1.2259999999999758,1.2259999999999758
1194,0.9540000000000005,1,0.7040000000000005,0.7040000000000005
1195,2.0869999999999083,1,1.8369999999999085,1.8369999999999085
1196,0.8830000000000005,1,0.6330000000000005,0.6330000000000005
1197,1.4479999999999789,1,1.1979999999999789,1.1979999999999789
1198,0.7600000000000003,1,0.5100000000000003,0.5100000000000003
1199,1.7799999999999423,1,1.5299999999999423,1.5299999999999423
1200,1.1520000000000006,1,0.9020000000000007,0.9020000000000007
1201,2.0339999999999145,1,1.7839999999999143,1.7839999999999143
1202,1.8529999999999343,1,1.6029999999999343,1.6029999999999343
1203,2.060999999999911,1,1.8109999999999113,1.8109999999999113
1204,2.70999999999984,1,2.45999999999984,2.45999999999984
1205,3.25,0,3.0,3.0
1206,2.088999999999908,1,1.8389999999999083,1.8389999999999083
1207,0.9420000000000005,1,0.6920000000000005,0.6920000000000005
1208,0.8720000000000004,1,0.6220000000000004,0.6220000000000004
1209,0.9050000000000005,1,0.6550000000000005,0.6550000000000005
1210,0.9220000000000005,1,0.6720000000000005,0.6720000000000005
1211,1.1330000000000007,1,0.8830000000000007,0.8830000000000007
1212,1.6779999999999535,1,1.4279999999999535,1.4279999999999535
1213,0.6580000000000004,1,0.4080000000000003,0.4080000000000003
1214,1.0540000000000007,1,0.8040000000000006,0.8040000000000006
1215,1.0430000000000006,1,0.7930000000000006,0.7930000000000006
1216,2.819999999999828,1,2.569999999999828,2.569999999999828
1217,1.590999999999963,1,1.340999999999963,1.340999999999963
1218,1.1670000000000007,1,0.9170000000000007,0.9170000000000007
1219,1.4889999999999743,1,1.2389999999999743,1.2389999999999743
1220,1.7899999999999412,1,1.5399999999999412,1.5399999999999412
1221,1.327999999999992,1,1.077999999999992,1.077999999999992
1222,1.6409999999999576,1,1.3909999999999576,1.3909999999999576
1223,1.0150000000000006,1,0.7650000000000006,0.7650000000000006
1224,1.2440000000000007,1,0.9940000000000008,0.9940000000000008
1225,1.2370000000000008,1,0.9870000000000008,0.9870000000000008
1226,1.754999999999945,1,1.504999999999945,1.504999999999945
1227,3.25,0,3.0,3.0
1228,1.4629999999999772,1,1.2129999999999772,1.2129999999999772
1229,2.0769999999999094,1,1.8269999999999096,1.8269999999999096
1230,2.965999999999812,1,2.715999999999812,2.715999999999812
1231,3.174999999999789,1,2.924999999999789,2.924999999999789
1232,0.9560000000000005,1,0.7060000000000005,0.7060000000000005
1233,0.7670000000000003,1,0.5170000000000003,0.5170000000000003
1234,1.2849999999999968,1,1.0349999999999968,1.0349999999999968
1235,1.1390000000000007,1,0.8890000000000007,0.8890000000000007
1236,2.9869999999998096,1,2.7369999999998096,2.7369999999998096
1237,1.4599999999999775,1,1.2099999999999775,1.2099999999999775
1238,1.2260000000000009,1,0.9760000000000008,0.9760000000000008
1239,0.8740000000000004,1,0.6240000000000004,0.6240000000000004
1240,0.7480000000000004,1,0.4980000000000004,0.4980000000000004
1241,0.6250000000000002,1,0.3750000000000003,0.3750000000000003
1242,0.7530000000000003,1,0.5030000000000003,0.5030000000000003
1243,0.9810000000000005,1,0.7310000000000005,0.7310000000000005
1244,0.7200000000000004,1,0.47000000000000036,0.47000000000000036
1245,1.1260000000000008,1,0.8760000000000007,0.8760000000000007
1246,0.6820000000000004,1,0.43200000000000033,0.43200000000000033
1247,1.672999999999954,1,1.422999999999954,1.422999999999954
1248,1.491999999999974,1,1.241999999999974,1.241999999999974
1249,1.2200000000000006,1,0.9700000000000008,0.9700000000000008
1250,0.9210000000000005,1,0.6710000000000005,0.6710000000000005
1251,1.609999999999961,1,1.359999999999961,1.359999999999961
1252,0.5590000000000002,1,0.3090000000000002,0.3090000000000002
1253,0.6420000000000003,1,0.3920000000000003,0.3920000000000003
1254,0.6610000000000003,1,0.4110000000000003,0.4110000000000003
1255,0.6830000000000003,1,0.43300000000000033,0.43300000000000033
1256,2.8879999999998205,1,2.6379999999998205,2.6379999999998205
1257,0.8520000000000004,1,0.6020000000000004,0.6020000000000004
1258,1.0950000000000006,1,0.8450000000000006,0.8450000000000006
1259,2.6339999999998485,1,2.3839999999998485,2.3839999999998485
1260,2.078999999999909,1,1.8289999999999094,1.8289999999999094
1261,2.4949999999998638,1,2.2449999999998638,2.2449999999998638
1262,1.0860000000000007,1,0.8360000000000006,0.8360000000000006
1263,0.6600000000000004,1,0.4100000000000003,0.4100000000000003
1264,0.7830000000000004,1,0.5330000000000004,0.5330000000000004
1265,0.6120000000000003,1,0.36200000000000027,0.36200000000000027
1266,0.8240000000000004,1,0.5740000000000004,0.5740000000000004
1267,1.3569999999999889,1,1.1069999999999889,1.1069999999999889
1268,1.7689999999999435,1,1.5189999999999435,1.5189999999999435
1269,1.5619999999999663,1,1.3119999999999663,1.3119999999999663
1270,1.8229999999999376,1,1.5729999999999376,1.5729999999999376
1271,1.1890000000000007,1,0.9390000000000007,0.9390000000000007
1272,0.9430000000000005,1,0.6930000000000005,0.6930000000000005
1273,1.6159999999999604,1,1.3659999999999604,1.3659999999999604
1274,1.1810000000000007,1,0.9310000000000007,0.9310000000000007
1275,1.7889999999999413,1,1.5389999999999413,1.5389999999999413
1276,2.0949999999999074,1,1.8449999999999076,1.8449999999999076
1277,1.4629999999999772,1,1.2129999999999772,1.2129999999999772
1278,1.0000000000000004,1,0.7500000000000006,0.7500000000000006
1279,1.1150000000000007,1,0.8650000000000007,0.8650000000000007
1280,1.991999999999919,1,1.741999999999919,1.741999999999919
1281,0.5510000000000002,1,0.3010000000000002,0.3010000000000002
1282,1.6489999999999567,1,1.3989999999999567,1.3989999999999567
1283,0.8760000000000004,1,0.6260000000000004,0.6260000000000004
1284,0.8250000000000004,1,0.5750000000000004,0.5750000000000004
1285,3.25,0,3.0,3.0
1286,0.7480000000000004,1,0.4980000000000004,0.4980000000000004
1287,1.1190000000000007,1,0.8690000000000007,0.8690000000000007
1288,0.6360000000000003,1,0.3860000000000003,0.3860000000000003
1289,1.4889999999999743,1,1.2389999999999743,1.2389999999999743
1290,1.0110000000000006,1,0.7610000000000006,0.7610000000000006
1291,0.8570000000000004,1,0.6070000000000004,0.6070000000000004
1292,1.4029999999999838,1,1.1529999999999838,1.1529999999999838
1293,2.1229999999999043,1,1.8729999999999045,1.8729999999999045
1294,1.1530000000000007,1,0.9030000000000007,0.9030000000000007
1295,1.1950000000000007,1,0.9450000000000007,0.9450000000000007
1296,0.7460000000000004,1,0.4960000000000004,0.4960000000000004
1297,1.691999999999952,1,1.441999999999952,1.441999999999952
1298,1.0920000000000005,1,0.8420000000000006,0.8420000000000006
1299,1.2629999999999992,1,1.0129999999999992,1.0129999999999992
1300,0.7980000000000004,1,0.5480000000000004,0.5480000000000004
1301,1.1380000000000008,1,0.8880000000000007,0.8880000000000007
1302,0.9810000000000005,1,0.7310000000000005,0.7310000000000005
1303,0.8710000000000004,1,0.6210000000000004,0.6210000000000004
1304,1.2809999999999973,1,1.0309999999999973,1.0309999999999973
1305,1.257,1,1.007,1.007
1306,0.7840000000000004,1,0.5340000000000004,0.5340000000000004
1307,1.79999999999994,1,1.54999999999994,1.54999999999994
1308,1.5419999999999685,1,1.2919999999999685,1.2919999999999685
1309,2.0289999999999146,1,1.7789999999999149,1.7789999999999149
1310,1.6439999999999573,1,1.3939999999999573,1.3939999999999573
1311,0.7350000000000003,1,0.4850000000000004,0.4850000000000004
1312,0.5540000000000003,1,0.3040000000000002,0.3040000000000002
1313,1.1230000000000007,1,0.8730000000000007,0.8730000000000007
1314,0.7110000000000003,1,0.46100000000000035,0.46100000000000035
1315,1.9939999999999187,1,1.7439999999999187,1.7439999999999187
1316,0.8040000000000004,1,0.5540000000000004,0.5540000000000004
1317,0.5290000000000001,1,0.2790000000000002,0.2790000000000002
1318,0.7010000000000003,1,0.45100000000000035,0.45100000000000035
1319,1.0120000000000005,1,0.7620000000000006,0.7620000000000006
1320,0.4790000000000002,1,0.22900000000000018,0.22900000000000018
1321,1.1340000000000008,1,0.8840000000000007,0.8840000000000007
1322,0.9870000000000005,1,0.7370000000000005,0.7370000000000005
1323,1.5789999999999644,1,1.3289999999999644,1.3289999999999644
1324,1.0540000000000007,1,0.8040000000000006,0.8040000000000006
1325,0.8080000000000004,1,0.5580000000000004,0.5580000000000004
1326,1.4589999999999776,1,1.2089999999999776,1.2089999999999776
1327,0.6370000000000002,1,0.3870000000000003,0.3870000000000003
1328,2.7699999999998335,1,2.5199999999998335,2.5199999999998335
1329,0.4830000000000002,1,0.23300000000000018,0.23300000000000018
1330,1.8059999999999394,1,1.5559999999999394,1.5559999999999394
1331,0.8020000000000004,1,0.5520000000000004,0.5520000000000004
1332,1.1350000000000007,1,0.8850000000000007,0.8850000000000007
1333,1.1420000000000008,1,0.8920000000000007,0.8920000000000007
1334,1.1900000000000008,1,0.9400000000000007,0.9400000000000007
1335,0.4860000000000002,1,0.23600000000000018,0.23600000000000018
1336,1.1530000000000007,1,0.9030000000000007,0.9030000000000007
1337,2.026999999999915,1,1.776999999999915,1.776999999999915
1338,1.9719999999999211,1,1.7219999999999211,1.7219999999999211
1339,1.6239999999999595,1,1.3739999999999595,1.3739999999999595
1340,0.5290000000000001,1,0.2790000000000002,0.2790000000000002
1341,0.5610000000000002,1,0.3110000000000002,0.3110000000000002
1342,1.4209999999999818,1,1.1709999999999818,1.1709999999999818
1343,2.2529999999998904,1,2.0029999999998904,2.0029999999998904
1344,0.9570000000000005,1,0.7070000000000005,0.7070000000000005
1345,0.9270000000000005,1,0.6770000000000005,0.6770000000000005
1346,0.9430000000000005,1,0.6930000000000005,0.6930000000000005
1347,1.6679999999999546,1,1.4179999999999546,1.4179999999999546
1348,1.3299999999999919,1,1.0799999999999919,1.0799999999999919
1349,0.8830000000000005,1,0.6330000000000005,0.6330000000000005
1350,0.6310000000000002,1,0.3810000000000003,0.3810000000000003
1351,1.500999999999973,1,1.250999999999973,1.250999999999973
1352,2.884999999999821,1,2.634999999999821,2.634999999999821
1353,1.6879999999999524,1,1.4379999999999524,1.4379999999999524
1354,1.1170000000000007,1,0.8670000000000007,0.8670000000000007
1355,0.5740000000000003,1,0.32400000000000023,0.32400000000000023
1356,2.2999999999998852,1,2.0499999999998852,2.0499999999998852
1357,0.7530000000000003,1,0.5030000000000003,0.5030000000000003
1358,1.0500000000000007,1,0.8000000000000006,0.8000000000000006
1359,0.7440000000000004,1,0.4940000000000004,0.4940000000000004
1360,0.3930000000000001,1,0.1430000000000001,0.1430000000000001
1361,2.282999999999887,1,2.032999999999887,2.032999999999887
1362,0.7760000000000004,1,0.5260000000000004,0.5260000000000004
1363,2.2409999999998913,1,1.9909999999998915,1.9909999999998915
1364,2.775999999999833,1,2.525999999999833,2.525999999999833
1365,2.1949999999998964,1,1.9449999999998966,1.9449999999998966
1366,1.3309999999999917,1,1.0809999999999917,1.0809999999999917
1367,1.927999999999926,1,1.677999999999926,1.677999999999926
1368,2.0899999999999084,1,1.8399999999999082,1.8399999999999082
1369,1.6029999999999618,1,1.3529999999999618,1.3529999999999618
1370,1.8989999999999292,1,1.6489999999999292,1.6489999999999292
1371,1.554999999999967,1,1.304999999999967,1.304999999999967
1372,1.5389999999999688,1,1.2889999999999688,1.2889999999999688
1373,1.0090000000000006,1,0.7590000000000006,0.7590000000000006
1374,1.0130000000000006,1,0.7630000000000006,0.7630000000000006
1375,3.25,0,3.0,3.0
1376,0.8520000000000004,1,0.6020000000000004,0.6020000000000004
1377,0.5890000000000002,1,0.33900000000000025,0.33900000000000025
1378,1.3179999999999932,1,1.0679999999999932,1.0679999999999932
1379,0.5870000000000002,1,0.33700000000000024,0.33700000000000024
1380,0.7310000000000003,1,0.48100000000000037,0.48100000000000037
1381,2.556999999999857,1,2.306999999999857,2.306999999999857
1382,1.3449999999999902,1,1.0949999999999902,1.0949999999999902
1383,0.8900000000000005,1,0.6400000000000005,0.6400000000000005
1384,0.7580000000000003,1,0.5080000000000003,0.5080000000000003
1385,0.6580000000000004,1,0.4080000000000003,0.4080000000000003
1386,1.2010000000000007,1,0.9510000000000007,0.9510000000000007
1387,0.9300000000000005,1,0.6800000000000005,0.6800000000000005
1388,1.2460000000000009,1,0.9960000000000008,0.9960000000000008
1389,0.7500000000000003,1,0.5000000000000003,0.5000000000000003
1390,1.7169999999999492,1,1.4669999999999492,1.4669999999999492
1391,0.7950000000000004,1,0.5450000000000004,0.5450000000000004
1392,1.2589999999999997,1,1.0089999999999997,1.0089999999999997
1393,2.1049999999999063,1,1.8549999999999065,1.8549999999999065
1394,1.5519999999999674,1,1.3019999999999674,1.3019999999999674
1395,0.9230000000000005,1,0.6730000000000005,0.6730000000000005
1396,1.2160000000000006,1,0.9660000000000007,0.9660000000000007
1397,0.6370000000000002,1,0.3870000000000003,0.3870000000000003
1398,0.5690000000000002,1,0.31900000000000023,0.31900000000000023
1399,2.1659999999999,1,1.9159999999998998,1.9159999999998998
1400,1.2859999999999967,1,1.0359999999999967,1.0359999999999967
1401,0.8430000000000004,1,0.5930000000000004,0.5930000000000004
1402,1.4699999999999764,1,1.2199999999999764,1.2199999999999764
1403,1.0850000000000006,1,0.8350000000000006,0.8350000000000006
1404,1.0260000000000007,1,0.7760000000000006,0.7760000000000006
1405,0.8670000000000004,1,0.6170000000000004,0.6170000000000004
1406,0.9710000000000005,1,0.7210000000000005,0.7210000000000005
1407,0.9110000000000005,1,0.6610000000000005,0.6610000000000005
1408,0.6570000000000003,1,0.4070000000000003,0.4070000000000003
1409,0.4550000000000002,1,0.20500000000000015,0.20500000000000015
1410,1.2440000000000007,1,0.9940000000000008,0.9940000000000008
1411,2.3409999999998807,1,2.0909999999998807,2.0909999999998807
1412,0.7860000000000004,1,0.5360000000000004,0.5360000000000004
1413,1.2340000000000009,1,0.9840000000000008,0.9840000000000008
1414,0.6900000000000004,1,0.44000000000000034,0.44000000000000034
1415,0.6290000000000002,1,0.3790000000000003,0.3790000000000003
1416,0.5990000000000002,1,0.34900000000000025,0.34900000000000025
1417,0.7410000000000003,1,0.4910000000000004,0.4910000000000004
1418,1.0650000000000006,1,0.8150000000000006,0.8150000000000006
1419,1.2909999999999962,1,1.0409999999999962,1.0409999999999962
1420,1.3939999999999848,1,1.1439999999999848,1.1439999999999848
1421,1.1430000000000007,1,0.8930000000000007,0.8930000000000007
1422,3.25,0,3.0,3.0
1423,0.8020000000000004,1,0.5520000000000004,0.5520000000000004
1424,1.1430000000000007,1,0.8930000000000007,0.8930000000000007
1425,2.481999999999865,1,2.231999999999865,2.231999999999865
1426,0.6260000000000003,1,0.3760000000000003,0.3760000000000003
1427,0.5860000000000003,1,0.33600000000000024,0.33600000000000024
1428,1.0580000000000007,1,0.8080000000000006,0.8080000000000006
1429,0.5510000000000002,1,0.3010000000000002,0.3010000000000002
1430,1.2190000000000007,1,0.9690000000000007,0.9690000000000007
1431,0.6240000000000003,1,0.3740000000000003,0.3740000000000003
1432,2.282999999999887,1,2.032999999999887,2.032999999999887
1433,0.7640000000000003,1,0.5140000000000003,0.5140000000000003
1434,0.5630000000000002,1,0.3130000000000002,0.3130000000000002
1435,0.8050000000000004,1,0.5550000000000004,0.5550000000000004
1436,0.4630000000000002,1,0.21300000000000016,0.21300000000000016
1437,0.4720000000000002,1,0.22200000000000017,0.22200000000000017
1438,2.491999999999864,1,2.241999999999864,2.241999999999864
1439,0.5950000000000002,1,0.34500000000000025,0.34500000000000025
1440,1.601999999999962,1,1.351999999999962,1.351999999999962
1441,0.5880000000000003,1,0.33800000000000024,0.33800000000000024
1442,0.4940000000000002,1,0.2440000000000002,0.2440000000000002
1443,0.6430000000000002,1,0.3930000000000003,0.3930000000000003
1444,1.1710000000000007,1,0.9210000000000007,0.9210000000000007
1445,2.0439999999999134,1,1.7939999999999132,1.7939999999999132
1446,2.0669999999999105,1,1.8169999999999107,1.8169999999999107
1447,2.394999999999875,1,2.144999999999875,2.144999999999875
1448,0.6800000000000004,1,0.4300000000000003,0.4300000000000003
1449,1.0970000000000006,1,0.8470000000000006,0.8470000000000006
1450,0.7020000000000004,1,0.45200000000000035,0.45200000000000035
1451,0.8130000000000004,1,0.5630000000000004,0.5630000000000004
1452,1.2699999999999985,1,1.0199999999999985,1.0199999999999985
1453,1.418999999999982,1,1.168999999999982,1.168999999999982
1454,0.8180000000000004,1,0.5680000000000004,0.5680000000000004
1455,3.0769999999997997,1,2.8269999999997997,2.8269999999997997
1456,1.3429999999999904,1,1.0929999999999904,1.0929999999999904
1457,1.1960000000000006,1,0.9460000000000007,0.9460000000000007
1458,0.9730000000000005,1,0.7230000000000005,0.7230000000000005
1459,0.7280000000000004,1,0.47800000000000037,0.47800000000000037
1460,2.611999999999851,1,2.361999999999851,2.361999999999851
1461,1.3769999999999867,1,1.1269999999999867,1.1269999999999867
1462,1.1650000000000007,1,0.9150000000000007,0.9150000000000007
1463,0.6630000000000003,1,0.4130000000000003,0.4130000000000003
1464,0.5370000000000001,1,0.2870000000000002,0.2870000000000002
1465,0.6580000000000004,1,0.4080000000000003,0.4080000000000003
1466,2.502999999999863,1,2.252999999999863,2.252999999999863
1467,0.9560000000000005,1,0.7060000000000005,0.7060000000000005
1468,0.8780000000000004,1,0.6280000000000004,0.6280000000000004
1469,2.5619999999998564,1,2.3119999999998564,2.3119999999998564
1470,1.273999999999998,1,1.023999999999998,1.023999999999998
1471,1.0250000000000006,1,0.7750000000000006,0.7750000000000006
1472,0.9440000000000005,1,0.6940000000000005,0.6940000000000005
1473,0.7870000000000004,1,0.5370000000000004,0.5370000000000004
1474,0.8430000000000004,1,0.5930000000000004,0.5930000000000004
1475,0.6600000000000004,1,0.4100000000000003,0.4100000000000003
1476,1.6839999999999529,1,1.4339999999999529,1.4339999999999529
1477,1.7429999999999464,1,1.4929999999999464,1.4929999999999464
1478,1.2989999999999953,1,1.0489999999999953,1.0489999999999953
1479,0.8500000000000004,1,0.6000000000000004,0.6000000000000004
1480,1.6399999999999577,1,1.3899999999999577,1.3899999999999577
1481,1.1120000000000005,1,0.8620000000000007,0.8620000000000007
1482,1.0400000000000005,1,0.7900000000000006,0.7900000000000006
1483,0.7330000000000003,1,0.4830000000000004,0.4830000000000004
1484,1.3049999999999946,1,1.0549999999999946,1.0549999999999946
1485,1.364999999999988,1,1.114999999999988,1.114999999999988
1486,0.7120000000000004,1,0.46200000000000035,0.46200000000000035
1487,1.1740000000000008,1,0.9240000000000007,0.9240000000000007
1488,0.5920000000000003,1,0.34200000000000025,0.34200000000000025
1489,2.1389999999999025,1,1.8889999999999028,1.8889999999999028
1490,0.7230000000000003,1,0.47300000000000036,0.47300000000000036
1491,2.008999999999917,1,1.758999999999917,1.758999999999917
1492,0.6400000000000003,1,0.3900000000000003,0.3900000000000003
1493,0.4860000000000002,1,0.23600000000000018,0.23600000000000018
1494,1.1060000000000008,1,0.8560000000000006,0.8560000000000006
1495,1.5599999999999665,1,1.3099999999999665,1.3099999999999665
1496,2.700999999999841,1,2.450999999999841,2.450999999999841
1497,0.8700000000000004,1,0.6200000000000004,0.6200000000000004
1498,1.283999999999997,1,1.033999999999997,1.033999999999997
1499,0.8990000000000005,1,0.6490000000000005,0.6490000000000005
1500,0.8220000000000004,1,0.5720000000000004,0.5720000000000004
1501,0.7750000000000004,1,0.5250000000000004,0.5250000000000004
1502,1.0770000000000006,1,0.8270000000000006,0.8270000000000006
1503,3.25,0,3.0,3.0
1504,2.214999999999894,1,1.9649999999998944,1.9649999999998944
1505,1.0670000000000006,1,0.8170000000000006,0.8170000000000006
1506,0.8130000000000004,1,0.5630000000000004,0.5630000000000004
1507,0.5240000000000002,1,0.2740000000000002,0.2740000000000002
1508,0.39900000000000013,1,0.1490000000000001,0.1490000000000001
1509,1.3719999999999872,1,1.1219999999999872,1.1219999999999872
1510,0.5280000000000002,1,0.2780000000000002,0.2780000000000002
1511,0.7670000000000003,1,0.5170000000000003,0.5170000000000003
1512,1.3949999999999847,1,1.1449999999999847,1.1449999999999847
1513,3.2169999999997843,1,2.9669999999997843,2.9669999999997843
1514,1.3579999999999888,1,1.1079999999999888,1.1079999999999888
1515,0.8820000000000005,1,0.6320000000000005,0.6320000000000005
1516,1.3149999999999935,1,1.0649999999999935,1.0649999999999935
1517,0.9980000000000006,1,0.7480000000000006,0.7480000000000006
1518,0.8760000000000004,1,0.6260000000000004,0.6260000000000004
1519,1.1870000000000007,1,0.9370000000000007,0.9370000000000007
1520,1.8589999999999336,1,1.6089999999999336,1.6089999999999336
1521,0.6560000000000004,1,0.4060000000000003,0.4060000000000003
1522,2.0519999999999126,1,1.8019999999999123,1.8019999999999123
1523,0.9100000000000005,1,0.6600000000000005,0.6600000000000005
1524,1.6869999999999525,1,1.4369999999999525,1.4369999999999525
1525,0.8570000000000004,1,0.6070000000000004,0.6070000000000004
1526,1.2599999999999996,1,1.0099999999999996,1.0099999999999996
1527,2.845999999999825,1,2.595999999999825,2.595999999999825
1528,0.5390000000000001,1,0.2890000000000002,0.2890000000000002
1529,1.6969999999999514,1,1.4469999999999514,1.4469999999999514
1530,0.5910000000000002,1,0.34100000000000025,0.34100000000000025
1531,1.282999999999997,1,1.032999999999997,1.032999999999997
1532,0.9510000000000005,1,0.7010000000000005,0.7010000000000005
1533,1.5759999999999648,1,1.3259999999999648,1.3259999999999648
1534,3.25,0,3.0,3.0
1535,0.6620000000000004,1,0.4120000000000003,0.4120000000000003
1536,0.4720000000000002,1,0.22200000000000017,0.22200000000000017
1537,1.427999999999981,1,1.177999999999981,1.177999999999981
1538,0.6580000000000004,1,0.4080000000000003,0.4080000000000003
1539,1.4329999999999805,1,1.1829999999999805,1.1829999999999805
1540,1.383999999999986,1,1.133999999999986,1.133999999999986
1541,0.4930000000000002,1,0.2430000000000002,0.2430000000000002
1542,1.3209999999999928,1,1.0709999999999928,1.0709999999999928
1543,0.9700000000000005,1,0.7200000000000005,0.7200000000000005
1544,1.0930000000000006,1,0.8430000000000006,0.8430000000000006
1545,2.673999999999844,1,2.423999999999844,2.423999999999844
1546,1.3339999999999914,1,1.0839999999999914,1.0839999999999914
1547,0.8990000000000005,1,0.6490000000000005,0.6490000000000005
1548,1.6329999999999585,1,1.3829999999999585,1.3829999999999585
1549,0.6530000000000002,1,0.4030000000000003,0.4030000000000003
1550,2.538999999999859,1,2.288999999999859,2.288999999999859
1551,0.9760000000000005,1,0.7260000000000005,0.7260000000000005
1552,1.473999999999976,1,1.223999999999976,1.223999999999976
1553,1.673999999999954,1,1.423999999999954,1.423999999999954
1554,0.6860000000000004,1,0.43600000000000033,0.43600000000000033
1555,0.6310000000000002,1,0.3810000000000003,0.3810000000000003
1556,0.9530000000000005,1,0.7030000000000005,0.7030000000000005
1557,1.392999999999985,1,1.142999999999985,1.142999999999985
1558,3.25,0,3.0,3.0
1559,2.6799999999998434,1,2.4299999999998434,2.4299999999998434
1560,1.328999999999992,1,1.078999999999992,1.078999999999992
1561,0.5000000000000002,1,0.25000000000000017,0.25000000000000017
1562,1.2520000000000004,1,1.0020000000000004,1.0020000000000004
1563,2.0769999999999094,1,1.8269999999999096,1.8269999999999096
1564,2.792999999999831,1,2.542999999999831,2.542999999999831
1565,0.5840000000000003,1,0.33400000000000024,0.33400000000000024
1566,0.5070000000000001,1,0.2570000000000002,0.2570000000000002
1567,0.9010000000000005,1,0.6510000000000005,0.6510000000000005
1568,0.6140000000000003,1,0.36400000000000027,0.36400000000000027
1569,1.5089999999999721,1,1.2589999999999721,1.2589999999999721
1570,0.8180000000000004,1,0.5680000000000004,0.5680000000000004
1571,0.5870000000000002,1,0.33700000000000024,0.33700000000000024
1572,0.7110000000000003,1,0.46100000000000035,0.46100000000000035
1573,1.2280000000000006,1,0.9780000000000008,0.9780000000000008
1574,0.5470000000000002,1,0.2970000000000002,0.2970000000000002
1575,0.5770000000000002,1,0.32700000000000023,0.32700000000000023
1576,0.8000000000000004,1,0.5500000000000004,0.5500000000000004
1577,0.7260000000000004,1,0.47600000000000037,0.47600000000000037
1578,1.3869999999999856,1,1.1369999999999856,1.1369999999999856
1579,0.5990000000000002,1,0.34900000000000025,0.34900000000000025
1580,0.5800000000000003,1,0.33000000000000024,0.33000000000000024
1581,1.5349999999999693,1,1.2849999999999693,1.2849999999999693
1582,1.0070000000000006,1,0.7570000000000006,0.7570000000000006
1583,1.0390000000000006,1,0.7890000000000006,0.7890000000000006
1584,1.0550000000000006,1,0.8050000000000006,0.8050000000000006
1585,0.7580000000000003,1,0.5080000000000003,0.5080000000000003
1586,0.6490000000000002,1,0.3990000000000003,0.3990000000000003
1587,1.3869999999999856,1,1.1369999999999856,1.1369999999999856
1588,2.0509999999999122,1,1.8009999999999124,1.8009999999999124
1589,1.3399999999999908,1,1.0899999999999908,1.0899999999999908
1590,1.292999999999996,1,1.042999999999996,1.042999999999996
1591,0.5370000000000001,1,0.2870000000000002,0.2870000000000002
1592,1.336999999999991,1,1.086999999999991,1.086999999999991
1593,0.8040000000000004,1,0.5540000000000004,0.5540000000000004
