trial,response_time,accuracy,decision_time,choice,final_evidence
1,0.5440000000000003,1,0.2940000000000002,1,1.0040102011062622
2,1.0720000000000005,0,0.8220000000000006,1,1.0367061671138686
3,3.25,0,3.0,0,0.5804448426220672
4,0.5410000000000001,0,0.2910000000000002,-1,-1.0612522979867802
5,1.6569999999999558,0,1.4069999999999558,-1,-1.0278666831134564
6,0.3350000000000001,1,0.08500000000000006,-1,-1.0048331700624358
7,0.9930000000000005,1,0.7430000000000005,-1,-1.0109293314545988
8,0.5690000000000002,1,0.31900000000000023,-1,-1.003845152690654
9,0.5860000000000003,0,0.33600000000000024,1,1.0298032144530143
10,0.6380000000000003,1,0.3880000000000003,-1,-1.06281492687714
11,1.0870000000000006,1,0.8370000000000006,1,1.0096247515255918
12,1.8489999999999347,1,1.5989999999999347,-1,-1.049674568865353
13,3.25,0,3.0,0,0.9243946416598406
14,0.7240000000000004,1,0.47400000000000037,1,1.016334903483485
15,0.6770000000000003,1,0.4270000000000003,-1,-1.0142137586564293
16,3.25,0,3.0,0,0.16351713902954018
17,0.5410000000000001,1,0.2910000000000002,1,1.0032347424395283
18,0.5940000000000003,1,0.34400000000000025,1,1.0076677695393532
19,0.9920000000000005,1,0.7420000000000005,1,1.0462745012346921
20,1.572999999999965,1,1.322999999999965,1,1.0110587550678438
21,0.5790000000000002,0,0.32900000000000024,1,1.0047657774616159
22,0.7450000000000003,0,0.4950000000000004,-1,-1.0221148412090464
23,1.1850000000000007,1,0.9350000000000007,1,1.0542850822251384
24,0.6220000000000003,1,0.3720000000000003,1,1.0476383998741479
25,0.7270000000000003,0,0.47700000000000037,-1,-1.033670428091281
26,1.3069999999999944,1,1.0569999999999944,1,1.006309610375249
27,0.5450000000000002,1,0.2950000000000002,-1,-1.001940123059199
28,1.6969999999999514,0,1.4469999999999514,-1,-1.0304551294802675
29,0.6200000000000003,0,0.3700000000000003,1,1.0086784911645619
30,0.6760000000000004,1,0.4260000000000003,1,1.0197173218102746
31,1.8149999999999384,1,1.5649999999999384,1,1.003039886420218
32,1.5349999999999693,0,1.2849999999999693,-1,-1.0142545565728895
33,0.6870000000000003,1,0.43700000000000033,1,1.0091754272650042
34,1.4429999999999794,1,1.1929999999999794,1,1.0271719777683932
35,1.8869999999999305,0,1.6369999999999305,-1,-1.0285395508858426
36,1.4139999999999826,1,1.1639999999999826,1,1.0007886449185928
37,1.5529999999999673,0,1.3029999999999673,-1,-1.00006697354884
38,0.9070000000000005,0,0.6570000000000005,-1,-1.0383223402165922
39,0.9370000000000005,1,0.6870000000000005,1,1.0031109015171356
40,2.0059999999999176,1,1.7559999999999174,-1,-1.0155750975530087
41,0.5330000000000001,0,0.2830000000000002,-1,-1.0159700944534482
42,0.41300000000000014,0,0.16300000000000012,-1,-1.0148113114826744
43,1.1040000000000005,1,0.8540000000000006,1,1.0263245892635449
44,1.1320000000000006,1,0.8820000000000007,1,1.0106905729236664
45,0.4940000000000002,1,0.2440000000000002,1,1.005527943540624
46,0.8000000000000004,1,0.5500000000000004,1,1.0104511538986725
47,0.7330000000000003,1,0.4830000000000004,-1,-1.0060917974723904
48,1.6799999999999533,0,1.4299999999999533,1,1.0242524793399763
49,0.9210000000000005,1,0.6710000000000005,1,1.013490850854748
50,1.0870000000000006,1,0.8370000000000006,1,1.0092584363851604
51,2.0359999999999143,1,1.785999999999914,1,1.0152425636363032
52,1.5249999999999704,0,1.2749999999999704,-1,-1.0209703880809966
53,0.3880000000000001,0,0.1380000000000001,-1,-1.0232218611302497
54,0.6070000000000002,1,0.35700000000000026,1,1.0388881078589345
55,0.5780000000000003,0,0.32800000000000024,-1,-1.0043386898970557
56,0.7010000000000003,1,0.45100000000000035,-1,-1.0012452520069883
57,0.8920000000000005,1,0.6420000000000005,1,1.0075736806778628
58,0.7770000000000004,1,0.5270000000000004,1,1.004126541847839
59,1.6589999999999556,1,1.4089999999999556,1,1.0000875565565457
60,1.7119999999999498,1,1.4619999999999498,1,1.0198054271537689
61,0.4500000000000002,1,0.20000000000000015,-1,-1.010075322788042
62,0.8750000000000004,1,0.6250000000000004,1,1.0076540286566222
63,1.1150000000000007,1,0.8650000000000007,1,1.0461144400632614
64,0.8510000000000004,1,0.6010000000000004,1,1.01457805892284
65,0.39700000000000013,1,0.1470000000000001,1,1.022292119276299
66,0.5830000000000002,0,0.33300000000000024,-1,-1.0118179244122427
67,1.1630000000000007,0,0.9130000000000007,-1,-1.0111144964042629
68,2.518999999999861,1,2.268999999999861,1,1.0278293586796592
69,0.5360000000000003,0,0.2860000000000002,-1,-1.0038634983497114
70,1.3499999999999897,1,1.0999999999999897,1,1.0209573967864798
71,0.3490000000000001,1,0.09900000000000007,1,1.0059708949750923
72,0.6680000000000004,1,0.4180000000000003,1,1.0381425016949133
73,1.2939999999999958,0,1.0439999999999958,-1,-1.0190524923868605
74,1.0810000000000006,1,0.8310000000000006,1,1.0179287223016908
75,0.7350000000000003,0,0.4850000000000004,-1,-1.0227367982893285
76,0.6270000000000002,1,0.3770000000000003,1,1.0010180410121634
77,0.9120000000000005,0,0.6620000000000005,1,1.0144588756882045
78,0.6970000000000003,1,0.44700000000000034,1,1.022369058195662
79,0.5000000000000002,0,0.25000000000000017,1,1.010881253875045
80,1.3319999999999916,1,1.0819999999999916,1,1.0177705536131831
81,3.25,0,3.0,0,-0.42371221082032107
82,1.654999999999956,1,1.404999999999956,-1,-1.0022177969392856
83,0.8700000000000004,1,0.6200000000000004,1,1.0351807573176062
84,0.4860000000000002,0,0.23600000000000018,-1,-1.005606737184278
85,1.1280000000000006,0,0.8780000000000007,-1,-1.001618460355516
86,0.7650000000000003,1,0.5150000000000003,1,1.0130238573537744
87,0.8570000000000004,1,0.6070000000000004,1,1.0094890672026098
88,0.4880000000000002,1,0.23800000000000018,1,1.0053764903677989
89,1.5119999999999718,0,1.2619999999999718,-1,-1.0186183611309751
90,1.4749999999999759,0,1.2249999999999759,-1,-1.0124987202954314
91,0.7210000000000003,1,0.47100000000000036,1,1.0070940062584774
92,1.4479999999999789,1,1.1979999999999789,-1,-1.0331695397363956
93,1.2619999999999993,1,1.0119999999999993,1,1.0186029479729366
94,0.4980000000000002,1,0.2480000000000002,-1,-1.0172382261595094
95,2.196999999999896,0,1.9469999999998964,-1,-1.0075577421806523
96,0.9320000000000005,1,0.6820000000000005,1,1.0324455225734221
97,0.6080000000000003,1,0.35800000000000026,1,1.0362922352116561
98,0.8550000000000004,1,0.6050000000000004,1,1.0090044305490218
99,1.8629999999999332,1,1.6129999999999332,-1,-1.0165908226862823
100,1.0330000000000006,1,0.7830000000000006,1,1.0610164931419592
101,1.1470000000000007,1,0.8970000000000007,1,1.0035224511968934
102,1.2530000000000003,1,1.0030000000000003,-1,-1.0127325516017236
103,0.6550000000000002,1,0.4050000000000003,1,1.0115528728944831
104,1.6479999999999568,1,1.3979999999999568,-1,-1.0040591152824085
105,1.4979999999999734,1,1.2479999999999734,1,1.0168325191186118
106,1.0700000000000007,1,0.8200000000000006,1,1.0020201355735445
107,1.0540000000000007,1,0.8040000000000006,1,1.0343689359728447
108,0.5870000000000002,0,0.33700000000000024,-1,-1.0040040661579481
109,2.9529999999998133,0,2.7029999999998133,1,1.0226422123856338
110,2.096999999999907,1,1.8469999999999074,1,1.0167355471816577
111,0.5830000000000002,1,0.33300000000000024,-1,-1.026758674337332
112,1.1020000000000008,0,0.8520000000000006,-1,-1.0144070469285562
113,0.5940000000000003,1,0.34400000000000025,-1,-1.0028382716217987
114,0.7080000000000004,1,0.45800000000000035,-1,-1.0060274284219362
115,1.1690000000000007,0,0.9190000000000007,-1,-1.0335160253263715
116,2.446999999999869,1,2.196999999999869,1,1.0101275065602098
117,0.6940000000000004,1,0.44400000000000034,-1,-1.0255250450674174
118,3.0579999999998018,1,2.8079999999998018,1,1.0171011899289708
119,1.1900000000000008,1,0.9400000000000007,-1,-1.0383497146352965
120,1.483999999999975,1,1.233999999999975,1,1.02115206473025
121,0.4600000000000002,1,0.21000000000000016,1,1.005139024834765
122,0.5460000000000003,1,0.2960000000000002,1,1.0420644893058166
123,0.3910000000000001,1,0.1410000000000001,1,1.013406182596737
124,0.6220000000000003,0,0.3720000000000003,-1,-1.0096632391004634
125,1.3409999999999906,1,1.0909999999999906,1,1.006877044920006
126,0.5990000000000002,1,0.34900000000000025,1,1.008525676519716
127,2.43799999999987,1,2.18799999999987,-1,-1.0159892749359423
128,0.4810000000000002,1,0.23100000000000018,1,1.0098397758750335
129,1.764999999999944,0,1.514999999999944,1,1.002834398772958
130,0.4710000000000002,1,0.22100000000000017,1,1.0742422268369092
131,1.2170000000000007,0,0.9670000000000007,1,1.006900911602722
132,1.0560000000000005,0,0.8060000000000006,-1,-1.0177327108494638
133,0.4540000000000002,1,0.20400000000000015,1,1.0124623346597967
134,0.6190000000000002,0,0.36900000000000027,1,1.0127882123278835
135,1.5939999999999628,1,1.3439999999999628,1,1.0169232460774895
136,0.5750000000000002,0,0.32500000000000023,1,1.0034160309580262
137,0.9670000000000005,0,0.7170000000000005,1,1.0003643551448849
138,1.0930000000000006,0,0.8430000000000006,-1,-1.003508942860187
139,0.8510000000000004,1,0.6010000000000004,-1,-1.0019267823750306
140,1.0680000000000005,1,0.8180000000000006,-1,-1.0006098697396582
141,1.2689999999999986,1,1.0189999999999986,-1,-1.063476637563146
142,1.1400000000000006,1,0.8900000000000007,-1,-1.003134448714959
143,0.5970000000000002,0,0.34700000000000025,1,1.0149236549477811
144,1.3139999999999936,1,1.0639999999999936,-1,-1.0034303159506095
145,1.2510000000000006,0,1.0010000000000006,-1,-1.0293542329823935
146,2.1139999999999057,0,1.8639999999999055,1,1.0008957192290682
147,0.8130000000000004,1,0.5630000000000004,-1,-1.0412161482045141
148,0.9090000000000005,1,0.6590000000000005,-1,-1.0655476035818823
149,2.009999999999917,0,1.759999999999917,1,1.0257764592457121
150,2.972999999999811,1,2.722999999999811,1,1.0280714764774759
151,1.89199999999993,1,1.64199999999993,1,1.0263510521542774
152,1.9409999999999246,0,1.6909999999999246,1,1.014321812245742
153,1.0260000000000007,1,0.7760000000000006,1,1.009835739681316
154,0.5300000000000002,1,0.2800000000000002,1,1.002931968008616
155,1.664999999999955,1,1.414999999999955,1,1.0198591283505563
156,1.4129999999999827,1,1.1629999999999827,-1,-1.013138345940519
157,3.25,0,3.0,0,0.5148550950289059
158,0.6530000000000002,1,0.4030000000000003,-1,-1.0158477831801465
159,1.5049999999999726,0,1.2549999999999726,-1,-1.02222255994961
160,0.6800000000000004,1,0.4300000000000003,1,1.0138052274288598
161,0.8240000000000004,1,0.5740000000000004,-1,-1.009487466243739
162,0.7170000000000003,0,0.46700000000000036,-1,-1.0226091415282226
163,1.336999999999991,1,1.086999999999991,1,1.0644016331279424
164,0.7500000000000003,1,0.5000000000000003,-1,-1.0163407993038382
165,1.0710000000000006,1,0.8210000000000006,1,1.0281562753158549
166,1.8109999999999389,0,1.5609999999999389,1,1.0173346046307579
167,0.4740000000000002,1,0.22400000000000017,1,1.0029805567057486
168,1.9149999999999274,1,1.6649999999999274,1,1.0073333098504442
169,1.0280000000000005,1,0.7780000000000006,1,1.0466314467144433
170,1.3949999999999847,1,1.1449999999999847,-1,-1.009173505836962
171,0.8590000000000004,0,0.6090000000000004,-1,-1.0070446609075387
172,0.5710000000000002,1,0.32100000000000023,1,1.0166627668048198
173,1.0490000000000006,1,0.7990000000000006,1,1.0206734120383882
174,0.9090000000000005,1,0.6590000000000005,-1,-1.0062955563675249
175,1.446999999999979,1,1.196999999999979,-1,-1.0057955625125161
176,2.273999999999888,1,2.023999999999888,1,1.009099947035449
177,2.142999999999902,1,1.8929999999999023,-1,-1.0204523640706098
178,1.9689999999999215,0,1.7189999999999215,-1,-1.0135904568537857
179,0.42400000000000015,1,0.17400000000000013,1,1.0454135840979277
180,0.43100000000000016,1,0.18100000000000013,1,1.0125994881031057
181,0.7500000000000003,1,0.5000000000000003,1,1.0260358396370268
182,0.4560000000000002,1,0.20600000000000016,-1,-1.0249565566945966
183,1.1680000000000006,1,0.9180000000000007,1,1.0054618579281926
184,1.8989999999999292,1,1.6489999999999292,1,1.0003536534545667
185,1.2859999999999967,1,1.0359999999999967,1,1.0327495793225296
186,1.9869999999999195,1,1.7369999999999195,-1,-1.0013479834168084
187,0.4880000000000002,1,0.23800000000000018,1,1.0322861227772226
188,0.7860000000000004,1,0.5360000000000004,-1,-1.0373634477569957
189,0.7170000000000003,1,0.46700000000000036,1,1.007141243321515
190,0.8710000000000004,1,0.6210000000000004,-1,-1.0285029538340094
191,0.7550000000000003,1,0.5050000000000003,1,1.014688399505664
192,1.2350000000000008,1,0.9850000000000008,1,1.0249579453815303
193,0.8080000000000004,1,0.5580000000000004,-1,-1.0003991922223472
194,0.9110000000000005,0,0.6610000000000005,1,1.0083758791810875
195,0.7460000000000004,0,0.4960000000000004,-1,-1.0525897286468306
196,1.3149999999999935,1,1.0649999999999935,1,1.0122404409409145
197,1.0710000000000006,1,0.8210000000000006,-1,-1.006760517739572
198,0.5500000000000003,1,0.3000000000000002,1,1.0260840637044244
199,3.25,0,3.0,0,-0.23320813978497915
200,0.7110000000000003,1,0.46100000000000035,1,1.0449612531917334
201,0.7930000000000004,1,0.5430000000000004,1,1.0125829089001133
202,1.545999999999968,1,1.295999999999968,1,1.0040165678503552
203,0.3410000000000001,0,0.09100000000000007,1,1.0075241455599915
204,1.5299999999999698,0,1.2799999999999698,-1,-1.0224550328439015
205,2.6799999999998434,0,2.4299999999998434,-1,-1.0087618219612726
206,1.6219999999999597,1,1.3719999999999597,1,1.0075779082239704
207,0.5240000000000002,1,0.2740000000000002,-1,-1.0112100796055778
208,1.9389999999999248,0,1.6889999999999248,-1,-1.0324499327776582
209,0.9530000000000005,1,0.7030000000000005,1,1.0099148902556574
210,1.2270000000000008,1,0.9770000000000008,-1,-1.0195220292425557
211,1.3159999999999934,1,1.0659999999999934,1,1.0178556915396442
212,0.9070000000000005,0,0.6570000000000005,-1,-1.002048064663278
213,0.4870000000000002,0,0.23700000000000018,1,1.0509572210165725
214,1.1580000000000008,1,0.9080000000000007,1,1.0204565064941764
215,0.6100000000000003,1,0.36000000000000026,1,1.0100159683384922
216,1.5409999999999686,1,1.2909999999999686,1,1.0025161594561096
217,1.0910000000000006,1,0.8410000000000006,-1,-1.006649812154051
218,1.2470000000000008,1,0.9970000000000008,1,1.0042600931728038
219,1.5619999999999663,0,1.3119999999999663,-1,-1.02750150876902
220,1.2709999999999984,1,1.0209999999999984,1,1.0266632151976207
221,0.6740000000000004,1,0.4240000000000003,-1,-1.0005129089042015
222,0.7410000000000003,1,0.4910000000000004,-1,-1.0037387229405577
223,1.1930000000000007,1,0.9430000000000007,1,1.0274228067708626
224,0.5080000000000002,1,0.2580000000000002,-1,-1.012868437882229
225,2.196999999999896,0,1.9469999999998964,-1,-1.0077987554855852
226,0.8030000000000004,0,0.5530000000000004,1,1.0171434090792013
227,0.4710000000000002,1,0.22100000000000017,-1,-1.0094880889093139
228,0.8710000000000004,1,0.6210000000000004,-1,-1.0123860477080098
229,0.9140000000000005,1,0.6640000000000005,1,1.0190638495034225
230,3.25,0,3.0,0,0.4890816018309275
231,1.0820000000000007,0,0.8320000000000006,-1,-1.0216289990896852
232,0.4800000000000002,1,0.23000000000000018,1,1.0556378580737371
233,1.6479999999999568,1,1.3979999999999568,1,1.0003400180819235
234,1.0820000000000007,1,0.8320000000000006,1,1.0266324915110558
235,2.747999999999836,0,2.497999999999836,1,1.00457235348456
236,0.9430000000000005,1,0.6930000000000005,-1,-1.023264606579841
237,1.1170000000000007,1,0.8670000000000007,1,1.0328954351593298
238,1.2430000000000008,1,0.9930000000000008,1,1.0276216463811523
239,0.3520000000000001,1,0.10200000000000008,1,1.0341658769206992
240,0.5790000000000002,0,0.32900000000000024,-1,-1.0107486602499849
241,0.5700000000000003,1,0.32000000000000023,1,1.032253437644577
242,0.6340000000000003,0,0.3840000000000003,-1,-1.0264810516591745
243,0.5600000000000003,0,0.3100000000000002,-1,-1.0161867675196912
244,1.6869999999999525,1,1.4369999999999525,1,1.0436467913547887
245,0.5250000000000001,0,0.2750000000000002,-1,-1.0043651374673497
246,1.6929999999999519,0,1.4429999999999519,1,1.0215605760852968
247,0.9970000000000006,1,0.7470000000000006,1,1.0156540130058778
248,0.9240000000000005,1,0.6740000000000005,1,1.0479602926370009
249,1.4509999999999785,0,1.2009999999999785,-1,-1.0105265872910443
250,0.8910000000000005,1,0.6410000000000005,1,1.0181691349970323
251,0.6440000000000003,1,0.3940000000000003,1,1.0015964649577551
252,1.0860000000000007,1,0.8360000000000006,1,1.04773037161864
253,2.3359999999998813,1,2.0859999999998813,-1,-1.0012723035527815
254,1.1240000000000006,1,0.8740000000000007,-1,-1.0018187464720067
255,0.8200000000000004,1,0.5700000000000004,1,1.011490909924153
256,3.25,0,3.0,0,0.16910342698832348
257,3.25,0,3.0,0,-0.18253582147474445
258,0.9620000000000005,1,0.7120000000000005,-1,-1.0091255087782744
259,0.6790000000000003,1,0.4290000000000003,1,1.0054261343587159
260,1.864999999999933,1,1.614999999999933,-1,-1.0248326420081089
261,0.7500000000000003,1,0.5000000000000003,1,1.00574750201053
262,0.9120000000000005,0,0.6620000000000005,-1,-1.0539026125099045
263,0.5890000000000002,1,0.33900000000000025,-1,-1.0131013000298281
264,2.61899999999985,0,2.36899999999985,-1,-1.0030385007494749
265,0.6750000000000003,0,0.4250000000000003,-1,-1.0231107201067549
266,1.1930000000000007,0,0.9430000000000007,1,1.0303884563076624
267,1.2180000000000009,1,0.9680000000000007,1,1.0025052690403327
268,0.8630000000000004,0,0.6130000000000004,-1,-1.036619752780621
269,0.43300000000000016,0,0.18300000000000013,-1,-1.0295100780101945
270,1.0130000000000006,1,0.7630000000000006,1,1.0022773177419209
271,1.1710000000000007,1,0.9210000000000007,-1,-1.02327185502434
272,0.6430000000000002,1,0.3930000000000003,1,1.0211070233803454
273,0.3880000000000001,1,0.1380000000000001,-1,-1.0414274793504235
274,0.5490000000000002,1,0.2990000000000002,-1,-1.0411524605924423
275,1.1820000000000008,1,0.9320000000000007,-1,-1.0015343443162623
276,0.5010000000000001,0,0.25100000000000017,-1,-1.003549474843176
277,1.6159999999999604,1,1.3659999999999604,-1,-1.002070454308222
278,0.7970000000000004,1,0.5470000000000004,1,1.0132454290872717
279,0.7600000000000003,1,0.5100000000000003,1,1.0081237918106598
280,1.1600000000000006,1,0.9100000000000007,-1,-1.0150468711368892
281,0.9780000000000005,1,0.7280000000000005,1,1.0002033468414908
282,2.656999999999846,1,2.406999999999846,1,1.0257868777033825
283,0.6990000000000003,1,0.44900000000000034,1,1.0505301492479941
284,3.25,0,3.0,0,0.40927973285376457
285,0.5630000000000002,0,0.3130000000000002,-1,-1.01600604857023
286,1.1700000000000008,0,0.9200000000000007,1,1.0118885657889156
287,1.545999999999968,1,1.295999999999968,1,1.0030808856110318
288,0.4890000000000002,1,0.23900000000000018,1,1.0024562155382422
289,1.9929999999999188,1,1.7429999999999188,-1,-1.013838499706348
290,0.5150000000000001,1,0.2650000000000002,-1,-1.0201182855186601
291,0.4970000000000002,1,0.2470000000000002,1,1.0279151324963745
292,3.25,0,3.0,0,-0.34405784271196704
293,2.0369999999999138,1,1.786999999999914,1,1.0042571087015775
294,1.1860000000000008,1,0.9360000000000007,1,1.0027073320844058
295,1.2550000000000001,1,1.0050000000000001,-1,-1.0539727732985473
296,0.8590000000000004,0,0.6090000000000004,-1,-1.021892928702322
297,0.6050000000000002,1,0.35500000000000026,-1,-1.0091633425867235
298,1.0620000000000007,1,0.8120000000000006,1,1.0134837469395273
299,1.6079999999999612,1,1.3579999999999612,1,1.0021599779789057
300,0.8150000000000004,0,0.5650000000000004,-1,-1.0310097323556229
301,0.7240000000000004,1,0.47400000000000037,-1,-1.0282626906126613
302,0.8390000000000004,1,0.5890000000000004,1,1.0157243698126837
303,0.39500000000000013,0,0.1450000000000001,1,1.004251134999395
304,1.581999999999964,1,1.331999999999964,1,1.0008861001603984
305,2.2679999999998888,1,2.0179999999998888,1,1.0094382530041364
306,0.7740000000000004,1,0.5240000000000004,1,1.0146994769764979
307,1.9329999999999254,1,1.6829999999999254,1,1.0150548832890878
308,0.7780000000000004,1,0.5280000000000004,1,1.0077102710818822
309,1.7129999999999497,1,1.4629999999999497,1,1.0134588858169968
310,1.4089999999999832,0,1.1589999999999832,-1,-1.008469400404139
311,1.0060000000000007,1,0.7560000000000006,1,1.025325964047228
312,1.1160000000000005,1,0.8660000000000007,1,1.005964739164751
313,0.6740000000000004,0,0.4240000000000003,1,1.0065229309215173
314,0.43500000000000016,1,0.18500000000000014,1,1.0256287707843224
315,0.9420000000000005,0,0.6920000000000005,-1,-1.0228815245948948
316,1.6489999999999567,1,1.3989999999999567,1,1.0063283112764168
317,1.392999999999985,1,1.142999999999985,1,1.002895686801995
318,1.1500000000000008,0,0.9000000000000007,-1,-1.0105625630402957
319,2.5599999999998566,0,2.3099999999998566,-1,-1.0174725721320905
320,1.6119999999999608,1,1.3619999999999608,1,1.013170253879753
321,0.5800000000000003,1,0.33000000000000024,1,1.0258123461549478
322,0.8900000000000005,1,0.6400000000000005,1,1.0047998322880807
323,1.4539999999999782,1,1.2039999999999782,1,1.0043220146828011
324,0.9290000000000005,1,0.6790000000000005,1,1.0148945183747191
325,1.0080000000000005,0,0.7580000000000006,-1,-1.0030021365463195
326,1.5809999999999642,1,1.3309999999999642,1,1.0218073247453634
327,0.6320000000000003,1,0.3820000000000003,-1,-1.032831550696078
328,0.5400000000000003,1,0.2900000000000002,1,1.0014591477932298
329,0.5020000000000002,1,0.25200000000000017,1,1.0027732490114822
330,3.25,0,3.0,0,0.1110919747768191
331,1.2090000000000007,0,0.9590000000000007,-1,-1.0058135841193927
332,0.7410000000000003,1,0.4910000000000004,-1,-1.002778953908555
333,1.0290000000000006,1,0.7790000000000006,1,1.0312711729130186
334,1.364999999999988,0,1.114999999999988,-1,-1.0101343707251191
335,0.7150000000000003,1,0.46500000000000036,1,1.0140526443033162
336,1.1210000000000007,1,0.8710000000000007,1,1.0133148582798805
337,1.5209999999999708,1,1.2709999999999708,1,1.010021250555664
338,0.7820000000000004,1,0.5320000000000004,1,1.0109011683889244
339,0.40100000000000013,0,0.1510000000000001,1,1.001233195500673
340,2.6239999999998496,0,2.3739999999998496,-1,-1.0150314201587953
341,0.9800000000000005,1,0.7300000000000005,-1,-1.0212456962876832
342,0.7720000000000004,0,0.5220000000000004,-1,-1.003900103161779
343,0.5260000000000002,1,0.2760000000000002,1,1.0705241773558418
344,1.0060000000000007,1,0.7560000000000006,-1,-1.0036798125387258
345,0.5790000000000002,1,0.32900000000000024,-1,-1.082976072727001
346,1.8779999999999315,0,1.6279999999999315,-1,-1.0241584639545347
347,2.6599999999998456,1,2.4099999999998456,1,1.0142976996329809
348,0.9770000000000005,0,0.7270000000000005,1,1.0119997853261893
349,0.8060000000000004,1,0.5560000000000004,1,1.0010689008211495
350,1.2350000000000008,1,0.9850000000000008,1,1.0292811952419718
351,1.3309999999999917,1,1.0809999999999917,1,1.0006384600292908
352,0.6570000000000003,1,0.4070000000000003,1,1.010634343982736
353,1.2310000000000008,1,0.9810000000000008,1,1.010532813886104
354,0.6640000000000004,1,0.4140000000000003,1,1.0055688801823555
355,1.2869999999999966,1,1.0369999999999966,-1,-1.0461135602754053
356,0.4740000000000002,0,0.22400000000000017,-1,-1.0143193023599089
357,0.6890000000000003,1,0.43900000000000033,1,1.0265884177548017
358,1.364999999999988,1,1.114999999999988,-1,-1.0140397103486165
359,0.8910000000000005,0,0.6410000000000005,1,1.0120968975504157
360,3.25,0,3.0,0,-0.3594279147258038
361,0.5820000000000003,1,0.33200000000000024,1,1.0294214423983703
362,1.6479999999999568,1,1.3979999999999568,1,1.0161668886820592
363,0.4590000000000002,1,0.20900000000000016,1,1.0124760391042418
364,0.4970000000000002,1,0.2470000000000002,-1,-1.037465162617192
365,0.6430000000000002,1,0.3930000000000003,1,1.0233716283440981
366,0.5140000000000002,1,0.2640000000000002,1,1.0020822877487399
367,0.4720000000000002,1,0.22200000000000017,-1,-1.0201190951674082
368,1.7679999999999436,1,1.5179999999999436,-1,-1.0055162220035603
369,0.6270000000000002,1,0.3770000000000003,1,1.0011140105760359
370,0.6330000000000002,1,0.3830000000000003,1,1.0009784862355025
371,0.43800000000000017,1,0.18800000000000014,1,1.0165073811729741
372,0.7220000000000004,0,0.47200000000000036,-1,-1.0011989006776973
373,1.2180000000000009,1,0.9680000000000007,1,1.0354257539177047
374,1.89099999999993,0,1.64099999999993,-1,-1.0091823375765994
375,0.42200000000000015,0,0.17200000000000013,-1,-1.0580693296022832
376,2.088999999999908,0,1.8389999999999083,-1,-1.0196014225047654
377,3.25,0,3.0,0,0.3961238677993052
378,1.9519999999999234,1,1.7019999999999234,-1,-1.032674548892702
379,0.7200000000000004,1,0.47000000000000036,1,1.0457368087464722
380,2.456999999999868,1,2.206999999999868,1,1.0123338067383654
381,1.0310000000000006,0,0.7810000000000006,-1,-1.0307303733037523
382,0.9460000000000005,1,0.6960000000000005,1,1.0006079826283436
383,1.1350000000000007,1,0.8850000000000007,1,1.0465443680488002
384,1.4149999999999825,0,1.1649999999999825,1,1.0221694502939398
385,1.3359999999999912,0,1.0859999999999912,-1,-1.002367492013912
386,1.3699999999999875,1,1.1199999999999875,1,1.0264437576558267
387,0.5250000000000001,1,0.2750000000000002,1,1.009187845709021
388,1.1980000000000008,1,0.9480000000000007,1,1.0350887300952218
389,2.993999999999809,1,2.743999999999809,1,1.0199207404743402
390,0.5810000000000002,1,0.33100000000000024,1,1.0036967050691696
391,0.5230000000000001,1,0.2730000000000002,1,1.008974423521684
392,0.6660000000000004,0,0.4160000000000003,-1,-1.0273246636028894
393,0.9080000000000005,1,0.6580000000000005,1,1.0218415286447071
394,2.185999999999898,0,1.9359999999998976,-1,-1.0009995745352438
395,1.0590000000000006,1,0.8090000000000006,1,1.0266836747198398
396,0.6850000000000003,1,0.43500000000000033,1,1.01497589227132
397,2.245999999999891,0,1.995999999999891,1,1.0000340319691647
398,1.1750000000000007,1,0.9250000000000007,1,1.015379219885991
399,2.0719999999999104,1,1.8219999999999101,1,1.0072118644422345
400,0.5470000000000002,1,0.2970000000000002,-1,-1.0018788667161236
401,1.0760000000000005,0,0.8260000000000006,1,1.0150471162981467
402,0.6340000000000003,1,0.3840000000000003,1,1.00542161979502
403,0.6850000000000003,1,0.43500000000000033,-1,-1.014875181448598
404,1.2969999999999955,0,1.0469999999999955,1,1.0202512327706446
405,2.1499999999999018,1,1.8999999999999015,-1,-1.026321858104244
406,0.9190000000000005,0,0.6690000000000005,-1,-1.0430088391116559
407,1.4349999999999803,0,1.1849999999999803,-1,-1.0410572480423883
408,1.809999999999939,0,1.559999999999939,-1,-1.0087359121432153
409,0.3580000000000001,1,0.10800000000000008,1,1.0236340289449275
410,0.7550000000000003,1,0.5050000000000003,1,1.0438074504333845
411,0.5810000000000002,1,0.33100000000000024,1,1.0175943139869177
412,0.8340000000000004,1,0.5840000000000004,1,1.011395412457896
413,0.6560000000000004,1,0.4060000000000003,1,1.0235642162194767
414,1.2699999999999985,1,1.0199999999999985,1,1.002446262503852
415,0.9750000000000005,1,0.7250000000000005,1,1.0048794687158031
416,1.0500000000000007,0,0.8000000000000006,1,1.0147068782458966
417,1.5039999999999727,1,1.2539999999999727,1,1.031109337812832
418,0.8630000000000004,1,0.6130000000000004,1,1.0071026079479695
419,0.7020000000000004,0,0.45200000000000035,-1,-1.0063398788646911
420,1.1070000000000007,1,0.8570000000000007,1,1.0046273409786755
421,1.9109999999999279,1,1.6609999999999279,1,1.00555375362042
422,2.6269999999998492,1,2.3769999999998492,1,1.032999330267682
423,1.5259999999999703,0,1.2759999999999703,-1,-1.0155027031740564
424,1.3069999999999944,0,1.0569999999999944,1,1.0439952784895212
425,0.5710000000000002,1,0.32100000000000023,1,1.0440633559710006
426,1.7529999999999453,1,1.5029999999999453,-1,-1.0226394399821361
427,0.5920000000000003,1,0.34200000000000025,-1,-1.015906387734903
428,1.1730000000000007,1,0.9230000000000007,1,1.029739750989113
429,3.25,0,3.0,0,0.1391277323642659
430,0.7990000000000004,1,0.5490000000000004,-1,-1.0018639236313756
431,0.6900000000000004,1,0.44000000000000034,1,1.0007850117821842
432,1.3709999999999873,1,1.1209999999999873,1,1.0001958653345426
433,0.5900000000000003,0,0.34000000000000025,-1,-1.0155330841368104
434,3.25,0,3.0,0,0.2675825175044315
435,0.7030000000000003,0,0.45300000000000035,-1,-1.0013728449590305
436,2.865999999999823,0,2.615999999999823,-1,-1.0148813335161089
437,0.4860000000000002,1,0.23600000000000018,-1,-1.0060913231818516
438,2.5229999999998607,1,2.2729999999998607,1,1.0079994489685848
439,0.8630000000000004,1,0.6130000000000004,1,1.007048325605864
440,0.9610000000000005,1,0.7110000000000005,1,1.0122707221650016
441,0.7550000000000003,0,0.5050000000000003,-1,-1.0215982980839524
442,1.3799999999999863,1,1.1299999999999863,1,1.0114157254998841
443,0.7880000000000004,0,0.5380000000000004,-1,-1.0340292980998647
444,0.6560000000000004,1,0.4060000000000003,1,1.0208609554038588
445,2.037999999999914,1,1.7879999999999139,1,1.0430222265415128
446,1.9199999999999269,0,1.6699999999999269,-1,-1.01348370526616
447,1.791999999999941,1,1.541999999999941,-1,-1.014613943196537
448,0.8040000000000004,1,0.5540000000000004,-1,-1.0315880071161567
449,0.5000000000000002,1,0.25000000000000017,1,1.006099436772527
450,1.4139999999999826,1,1.1639999999999826,1,1.0402963333910034
451,1.5149999999999715,1,1.2649999999999715,-1,-1.0056840615917915
452,0.6900000000000004,1,0.44000000000000034,1,1.0064163484570476
453,2.047999999999913,1,1.7979999999999128,-1,-1.0017177360548817
454,0.5290000000000001,1,0.2790000000000002,1,1.0435092266340242
455,0.7220000000000004,1,0.47200000000000036,1,1.030262656877109
456,2.0109999999999166,1,1.7609999999999169,1,1.0102551501516581
457,1.1160000000000005,1,0.8660000000000007,1,1.0039626965499837
458,1.0830000000000006,1,0.8330000000000006,1,1.0451947650576248
459,0.6160000000000003,1,0.36600000000000027,1,1.0122023671389078
460,0.5810000000000002,1,0.33100000000000024,1,1.0012473867964338
461,0.8830000000000005,1,0.6330000000000005,1,1.0541163318473339
462,0.9740000000000005,0,0.7240000000000005,-1,-1.0309049301756743
463,0.6130000000000002,0,0.36300000000000027,-1,-1.0030332542442453
464,1.2969999999999955,0,1.0469999999999955,-1,-1.0265060060266193
465,2.9239999999998165,1,2.6739999999998165,1,1.0021214204274747
466,1.9769999999999206,1,1.7269999999999206,-1,-1.0423237655024562
467,2.6129999999998508,0,2.3629999999998508,1,1.0191470087136454
468,2.239999999999892,1,1.9899999999998916,1,1.0066122380987639
469,1.745999999999946,0,1.495999999999946,-1,-1.0571002996597176
470,1.0170000000000006,1,0.7670000000000006,1,1.0030408246521088
471,0.7800000000000004,1,0.5300000000000004,1,1.0012769960877401
472,1.2859999999999967,1,1.0359999999999967,1,1.0158403018007582
473,0.4760000000000002,1,0.22600000000000017,-1,-1.0243423492440196
474,2.134999999999903,1,1.8849999999999032,-1,-1.0045480457593141
475,2.481999999999865,1,2.231999999999865,1,1.02888021949307
476,1.61999999999996,0,1.36999999999996,-1,-1.0127275092567647
477,1.6329999999999585,0,1.3829999999999585,-1,-1.0088127887156555
478,1.0240000000000005,0,0.7740000000000006,-1,-1.0040542345109786
479,0.5300000000000002,1,0.2800000000000002,-1,-1.026365745299793
480,1.1720000000000006,0,0.9220000000000007,-1,-1.0059367545665328
481,0.9940000000000005,1,0.7440000000000005,-1,-1.0245163631593275
482,0.8000000000000004,1,0.5500000000000004,1,1.0118190846409811
483,2.142999999999902,1,1.8929999999999023,-1,-1.0331574362053522
484,1.3399999999999908,1,1.0899999999999908,1,1.0023989035171832
485,2.34799999999988,1,2.09799999999988,1,1.0132337806125276
486,0.8360000000000004,1,0.5860000000000004,-1,-1.0137411196846637
487,0.4550000000000002,0,0.20500000000000015,-1,-1.0201830898358797
488,1.310999999999994,0,1.060999999999994,-1,-1.0073470161856175
489,0.5940000000000003,0,0.34400000000000025,1,1.0082914700439347
490,0.9640000000000005,0,0.7140000000000005,-1,-1.0365337241677344
491,0.4690000000000002,0,0.21900000000000017,-1,-1.0152611640053735
492,0.9490000000000005,0,0.6990000000000005,-1,-1.010860486155251
493,0.7560000000000003,0,0.5060000000000003,1,1.0022453601677215
494,1.2530000000000003,0,1.0030000000000003,-1,-1.0156987559068547
495,1.2849999999999968,1,1.0349999999999968,1,1.0030172833482773
496,0.5880000000000003,1,0.33800000000000024,1,1.0252009744759427
497,1.2889999999999964,0,1.0389999999999964,-1,-1.0124627258906211
498,0.9930000000000005,1,0.7430000000000005,1,1.0033363334440613
499,2.394999999999875,1,2.144999999999875,1,1.023320007814259
500,0.6820000000000004,0,0.43200000000000033,-1,-1.03370521329289
501,0.5210000000000001,1,0.2710000000000002,1,1.0251664216531042
502,0.6430000000000002,0,0.3930000000000003,-1,-1.0044799835087346
503,2.4779999999998656,0,2.2279999999998656,-1,-1.042849957610092
504,1.3449999999999902,1,1.0949999999999902,-1,-1.028499254826986
505,1.2440000000000007,1,0.9940000000000008,1,1.074795984337096
506,2.5889999999998534,0,2.3389999999998534,-1,-1.056617788800492
507,0.5290000000000001,1,0.2790000000000002,-1,-1.0087296476410625
508,0.7540000000000003,0,0.5040000000000003,-1,-1.03219009374312
509,1.2500000000000007,1,1.0000000000000007,1,1.0015725216757403
510,0.7420000000000004,1,0.4920000000000004,-1,-1.0043920799225745
511,2.25799999999989,1,2.00799999999989,-1,-1.0391914618183016
512,1.1790000000000007,1,0.9290000000000007,1,1.0079992310929178
513,0.9660000000000005,0,0.7160000000000005,1,1.0031078746592523
514,0.9510000000000005,1,0.7010000000000005,1,1.000463103346858
515,1.9669999999999217,1,1.7169999999999217,1,1.0336703863754464
516,0.6640000000000004,1,0.4140000000000003,-1,-1.0001670247312053
517,0.7650000000000003,1,0.5150000000000003,1,1.0740660869902618
518,0.43500000000000016,1,0.18500000000000014,-1,-1.0073498695836745
519,0.43400000000000016,0,0.18400000000000014,1,1.0146401877074018
520,1.89199999999993,0,1.64199999999993,-1,-1.014028198472201
521,0.5220000000000002,0,0.2720000000000002,-1,-1.0187052950790334
522,0.7590000000000003,1,0.5090000000000003,1,1.0078108773137042
523,1.0840000000000005,1,0.8340000000000006,1,1.00150879062546
524,2.0139999999999167,1,1.7639999999999165,1,1.0001351427508338
525,0.8470000000000004,1,0.5970000000000004,-1,-1.0052112071278723
526,2.0319999999999148,0,1.7819999999999145,1,1.0196090000238462
527,0.43800000000000017,0,0.18800000000000014,-1,-1.023425105824425
528,0.9650000000000005,1,0.7150000000000005,-1,-1.0197381230243594
529,3.1669999999997898,1,2.9169999999997898,1,1.003365435231371
530,0.40000000000000013,1,0.1500000000000001,1,1.0288893961277088
531,0.7580000000000003,1,0.5080000000000003,1,1.015996840038699
532,0.8910000000000005,1,0.6410000000000005,1,1.0008513325333512
533,0.5870000000000002,1,0.33700000000000024,1,1.0220745568057887
534,1.4139999999999826,0,1.1639999999999826,-1,-1.027192826006975
535,1.7089999999999501,0,1.4589999999999501,-1,-1.0165198729595433
536,0.6710000000000003,0,0.4210000000000003,-1,-1.0104840097630565
537,0.7030000000000003,0,0.45300000000000035,-1,-1.0101426608232975
538,1.0280000000000005,1,0.7780000000000006,-1,-1.0088684212037236
539,0.4740000000000002,1,0.22400000000000017,1,1.000462038269233
540,0.5280000000000002,0,0.2780000000000002,-1,-1.0065978985761754
541,0.4660000000000002,1,0.21600000000000016,1,1.0087585426632608
542,1.1720000000000006,1,0.9220000000000007,1,1.0187231901398457
543,0.6200000000000003,1,0.3700000000000003,1,1.0237823421803944
544,2.6779999999998436,1,2.4279999999998436,1,1.0072596340616733
545,1.1450000000000007,1,0.8950000000000007,1,1.0285583321046494
546,1.592999999999963,0,1.342999999999963,-1,-1.0326248571243357
547,1.0100000000000007,1,0.7600000000000006,1,1.0137503303557285
548,0.6270000000000002,1,0.3770000000000003,-1,-1.0370453190269344
549,0.9910000000000005,0,0.7410000000000005,-1,-1.0273147421216642
550,0.9150000000000005,1,0.6650000000000005,-1,-1.0287891821371355
551,0.9620000000000005,1,0.7120000000000005,1,1.0069699454111536
552,0.3750000000000001,1,0.12500000000000008,1,1.0084655274645578
553,0.5410000000000001,1,0.2910000000000002,-1,-1.0082851956635137
554,0.5800000000000003,1,0.33000000000000024,1,1.0354348674183558
555,0.8110000000000004,1,0.5610000000000004,1,1.007690089608141
556,0.7490000000000003,0,0.4990000000000004,1,1.0062004144575198
557,1.7439999999999463,1,1.4939999999999463,-1,-1.0012588294059757
558,1.0340000000000007,1,0.7840000000000006,1,1.0248375710730728
559,2.2419999999998916,0,1.9919999999998914,-1,-1.0001198192524914
560,0.6190000000000002,0,0.36900000000000027,1,1.0038170511712716
561,0.5080000000000002,1,0.2580000000000002,1,1.0284020631403226
562,2.491999999999864,0,2.241999999999864,-1,-1.0070925004457492
563,1.2769999999999977,1,1.0269999999999977,-1,-1.0096253182265795
564,0.6760000000000004,1,0.4260000000000003,-1,-1.0884409754322144
565,1.43799999999998,1,1.18799999999998,1,1.0252786175340085
566,1.7839999999999419,1,1.5339999999999419,1,1.0294137983238867
567,0.9740000000000005,1,0.7240000000000005,-1,-1.0165612439903031
568,0.39600000000000013,1,0.1460000000000001,-1,-1.0411961650623232
569,1.4539999999999782,1,1.2039999999999782,-1,-1.0175422465439519
570,1.0440000000000005,0,0.7940000000000006,1,1.0187481532532077
571,0.6450000000000002,1,0.3950000000000003,-1,-1.0224940775112965
572,0.6610000000000003,1,0.4110000000000003,1,1.0046911624109613
573,1.1010000000000006,1,0.8510000000000006,-1,-1.0476295820834798
574,1.2520000000000004,1,1.0020000000000004,1,1.016374390193793
575,0.7100000000000004,1,0.46000000000000035,1,1.0105147865084116
576,1.291999999999996,1,1.041999999999996,1,1.0245088144284211
577,0.4980000000000002,1,0.2480000000000002,1,1.0128436971911037
578,1.1900000000000008,0,0.9400000000000007,-1,-1.0055509843815793
579,1.5539999999999672,1,1.3039999999999672,-1,-1.00163224771205
580,1.5069999999999724,1,1.2569999999999724,1,1.035401227169999
581,3.25,0,3.0,0,-0.3625473143080851
582,0.7150000000000003,1,0.46500000000000036,1,1.0599430974574635
583,0.7970000000000004,1,0.5470000000000004,1,1.002073443931952
584,0.9400000000000005,1,0.6900000000000005,1,1.011680078069274
585,0.8830000000000005,1,0.6330000000000005,1,1.0689159322316846
586,1.0690000000000006,1,0.8190000000000006,-1,-1.0084892460622945
587,1.0280000000000005,1,0.7780000000000006,1,1.0324649613170904
588,3.25,0,3.0,0,-0.04263864085097799
589,0.40000000000000013,1,0.1500000000000001,1,1.0031773825409025
590,0.4560000000000002,1,0.20600000000000016,1,1.0408505862280404
591,1.4979999999999734,1,1.2479999999999734,1,1.0269962580569136
592,1.0310000000000006,1,0.7810000000000006,-1,-1.031122768143461
593,0.8090000000000004,0,0.5590000000000004,-1,-1.0067732497580963
594,1.1990000000000007,1,0.9490000000000007,1,1.0218827186659656
595,0.6240000000000003,1,0.3740000000000003,-1,-1.0128196107507383
596,1.1980000000000008,0,0.9480000000000007,-1,-1.003404710984175
597,0.5270000000000001,1,0.2770000000000002,-1,-1.0035965934372504
598,0.6520000000000004,1,0.4020000000000003,1,1.0078867093366735
599,0.7140000000000004,0,0.46400000000000036,1,1.0045871460486726
600,3.235999999999782,0,2.985999999999782,-1,-1.0071761876079992
601,2.1179999999999053,1,1.867999999999905,-1,-1.0221643503293298
602,0.32900000000000007,1,0.07900000000000006,-1,-1.0122622879670042
603,0.4460000000000002,1,0.19600000000000015,-1,-1.002433864801998
604,0.6420000000000003,0,0.3920000000000003,-1,-1.0277840930481705
605,0.6050000000000002,1,0.35500000000000026,1,1.0011107541984487
606,0.7560000000000003,1,0.5060000000000003,1,1.0165959987218778
607,1.9219999999999267,0,1.6719999999999267,-1,-1.016461902957449
608,1.5079999999999723,1,1.2579999999999723,1,1.033431956171062
609,2.1189999999999047,1,1.868999999999905,1,1.0193003342134126
610,0.8960000000000005,1,0.6460000000000005,1,1.0352783628985283
611,1.0180000000000007,1,0.7680000000000006,1,1.0050204085438417
612,1.0890000000000006,0,0.8390000000000006,1,1.0008044890986487
613,0.5480000000000003,0,0.2980000000000002,-1,-1.0054639356428967
614,1.9699999999999214,1,1.7199999999999214,-1,-1.01353588890866
615,0.4930000000000002,1,0.2430000000000002,1,1.0141904665227108
616,1.2250000000000008,1,0.9750000000000008,-1,-1.0442998093743516
617,0.6100000000000003,1,0.36000000000000026,1,1.010065786224735
618,1.8799999999999313,1,1.6299999999999313,1,1.0181209974266423
619,1.1180000000000008,0,0.8680000000000007,1,1.0215157748054686
620,0.3500000000000001,0,0.10000000000000007,-1,-1.053197484166259
621,0.4830000000000002,0,0.23300000000000018,-1,-1.0299875592278198
622,1.3359999999999912,1,1.0859999999999912,-1,-1.0000618710178029
623,0.6950000000000003,1,0.44500000000000034,-1,-1.0080818523722095
624,1.2300000000000009,1,0.9800000000000008,1,1.0006851259758875
625,1.7249999999999484,1,1.4749999999999484,-1,-1.005047919705642
626,3.25,0,3.0,0,-0.20592071316513666
627,2.4699999999998665,1,2.2199999999998665,1,1.0293881053527896
628,1.4049999999999836,1,1.1549999999999836,-1,-1.0355081493763334
629,1.2510000000000006,0,1.0010000000000006,-1,-1.0001541329254335
630,0.5370000000000001,1,0.2870000000000002,1,1.0404466824618264
631,1.1920000000000006,1,0.9420000000000007,1,1.035493188126186
632,0.6690000000000003,1,0.4190000000000003,-1,-1.0026691883281889
633,0.4760000000000002,1,0.22600000000000017,1,1.0183079867097633
634,1.1490000000000007,1,0.8990000000000007,1,1.0096727290423892
635,0.7040000000000004,1,0.45400000000000035,-1,-1.0005152044545291
636,0.9800000000000005,1,0.7300000000000005,1,1.0071481385085381
637,0.8280000000000004,1,0.5780000000000004,1,1.0199392862344303
638,1.7439999999999463,0,1.4939999999999463,-1,-1.0025557912514178
639,0.5940000000000003,1,0.34400000000000025,-1,-1.0134101794380594
640,0.7460000000000004,1,0.4960000000000004,1,1.012712871049762
641,2.80199999999983,1,2.55199999999983,1,1.0073528819176487
642,3.2439999999997813,1,2.9939999999997813,1,1.0110956495389714
643,1.2320000000000007,1,0.9820000000000008,-1,-1.0409292291101537
644,0.5800000000000003,1,0.33000000000000024,1,1.0287778428035095
645,0.8580000000000004,1,0.6080000000000004,-1,-1.0395787453568677
646,2.054999999999912,1,1.804999999999912,1,1.0248072239653785
647,0.8970000000000005,1,0.6470000000000005,-1,-1.0066637593288938
648,1.7629999999999442,0,1.5129999999999442,-1,-1.0035054400270864
649,1.581999999999964,1,1.331999999999964,1,1.0141923821745011
650,1.9689999999999215,1,1.7189999999999215,1,1.0134955318156713
651,1.319999999999993,1,1.069999999999993,1,1.0031357895449275
652,0.5030000000000001,1,0.25300000000000017,1,1.0368766186814504
653,0.6300000000000003,1,0.3800000000000003,1,1.0271514783002416
654,0.9880000000000005,1,0.7380000000000005,-1,-1.0067708010927647
655,0.5060000000000002,1,0.25600000000000017,-1,-1.017017401249387
656,0.8770000000000004,0,0.6270000000000004,-1,-1.015652967559132
657,1.0710000000000006,1,0.8210000000000006,-1,-1.0078609809783226
658,0.5180000000000002,1,0.2680000000000002,1,1.0365224656921694
659,1.0980000000000008,0,0.8480000000000006,-1,-1.0355378704020517
660,1.4219999999999817,1,1.1719999999999817,1,1.0042341688878307
661,0.9680000000000005,1,0.7180000000000005,1,1.025485320150979
662,0.42700000000000016,1,0.17700000000000013,-1,-1.0065246904047833
663,0.5400000000000003,1,0.2900000000000002,1,1.0223111953408879
664,1.881999999999931,0,1.631999999999931,1,1.0061787984333743
665,1.0800000000000005,1,0.8300000000000006,-1,-1.0304403339550294
666,0.9030000000000005,0,0.6530000000000005,-1,-1.0405213957238078
667,0.9710000000000005,1,0.7210000000000005,1,1.007234256379434
668,0.8170000000000004,1,0.5670000000000004,1,1.002426675190595
669,1.492999999999974,1,1.242999999999974,-1,-1.019634271045932
670,1.2250000000000008,1,0.9750000000000008,1,1.0142283116753261
671,1.2000000000000006,1,0.9500000000000007,1,1.043166649718053
672,2.447999999999869,0,2.197999999999869,-1,-1.0775316656679055
673,0.3700000000000001,0,0.12000000000000009,-1,-1.1048260236222291
674,0.8440000000000004,0,0.5940000000000004,-1,-1.0268687428082932
675,1.7659999999999438,1,1.5159999999999438,-1,-1.002776513913819
676,0.5120000000000002,1,0.2620000000000002,1,1.0198861633343437
677,1.1630000000000007,1,0.9130000000000007,1,1.0007010879821745
678,1.7689999999999435,0,1.5189999999999435,-1,-1.0024038166625486
679,0.43800000000000017,1,0.18800000000000014,-1,-1.013356258093561
680,1.0280000000000005,1,0.7780000000000006,1,1.0103971437648345
681,0.9520000000000005,1,0.7020000000000005,-1,-1.037104892525434
682,0.5140000000000002,1,0.2640000000000002,1,1.0529083715163994
683,0.5990000000000002,1,0.34900000000000025,1,1.0391284246577879
684,1.1410000000000007,1,0.8910000000000007,1,1.0059712203227642
685,0.5370000000000001,1,0.2870000000000002,1,1.0262510950711248
686,0.5740000000000003,1,0.32400000000000023,1,1.040380146225388
687,0.4590000000000002,0,0.20900000000000016,1,1.0269796941636984
688,1.3999999999999841,0,1.1499999999999841,1,1.0025458780796401
689,1.1060000000000008,1,0.8560000000000006,1,1.0193295945915648
690,0.9030000000000005,1,0.6530000000000005,1,1.010526772364839
691,0.8940000000000005,1,0.6440000000000005,1,1.0337758300359512
692,2.1959999999998967,1,1.9459999999998965,-1,-1.0247703597403786
693,0.8460000000000004,1,0.5960000000000004,1,1.0109985588776138
694,0.6330000000000002,1,0.3830000000000003,1,1.0328912324081492
695,2.7809999999998323,1,2.5309999999998323,1,1.0114906335097549
696,1.3979999999999844,1,1.1479999999999844,1,1.029514885326058
697,0.8880000000000005,1,0.6380000000000005,-1,-1.0015260850612968
698,0.4970000000000002,1,0.2470000000000002,-1,-1.0053311611383977
699,0.9930000000000005,1,0.7430000000000005,-1,-1.0228058187105136
700,1.6079999999999612,1,1.3579999999999612,1,1.0006621828234727
701,2.339999999999881,0,2.089999999999881,-1,-1.0128395676606265
702,0.9760000000000005,1,0.7260000000000005,-1,-1.0112458091907282
703,1.0820000000000007,1,0.8320000000000006,-1,-1.0895362989640278
704,1.7339999999999474,1,1.4839999999999474,1,1.0070463340207256
705,0.41200000000000014,0,0.16200000000000012,1,1.0534654246803248
706,0.5800000000000003,1,0.33000000000000024,-1,-1.0208854575963253
707,0.8200000000000004,0,0.5700000000000004,-1,-1.0003836131343373
708,0.5500000000000003,1,0.3000000000000002,1,1.0174915014046046
709,1.2220000000000009,1,0.9720000000000008,1,1.0272267865008662
710,0.3420000000000001,1,0.09200000000000007,-1,-1.0044206804033964
711,1.0540000000000007,1,0.8040000000000006,1,1.0431020924147187
712,0.5470000000000002,0,0.2970000000000002,1,1.047076439029622
713,0.8800000000000004,1,0.6300000000000004,1,1.0035919898702483
714,1.6439999999999573,1,1.3939999999999573,1,1.0282853825474492
715,1.0020000000000007,1,0.7520000000000006,1,1.0276840346146954
716,0.9930000000000005,1,0.7430000000000005,1,1.0142448818252436
717,0.9330000000000005,0,0.6830000000000005,-1,-1.034009994905451
718,0.6010000000000002,1,0.35100000000000026,1,1.0093311962519915
719,0.5250000000000001,0,0.2750000000000002,-1,-1.0079279650810953
720,1.4479999999999789,1,1.1979999999999789,-1,-1.0243556104253295
721,1.4309999999999807,1,1.1809999999999807,-1,-1.0117420423238883
722,2.4599999999998676,0,2.2099999999998676,1,1.0026720212990683
723,0.5670000000000002,1,0.3170000000000002,1,1.0212028624380478
724,0.5720000000000003,0,0.32200000000000023,-1,-1.0426676518184808
725,0.8920000000000005,1,0.6420000000000005,1,1.0423555282438446
726,1.0100000000000007,1,0.7600000000000006,-1,-1.001098838638954
727,0.5210000000000001,1,0.2710000000000002,1,1.0259581471485824
728,0.6460000000000004,0,0.3960000000000003,-1,-1.0003234613461969
729,1.273999999999998,1,1.023999999999998,-1,-1.0114473069530823
730,0.6940000000000004,0,0.44400000000000034,-1,-1.0002030977992162
731,0.6810000000000003,1,0.4310000000000003,1,1.0077308462010015
732,0.7820000000000004,1,0.5320000000000004,-1,-1.0183947191704807
733,0.5310000000000001,1,0.2810000000000002,1,1.0223599732201263
734,0.4840000000000002,1,0.23400000000000018,1,1.0200728380506212
735,1.3819999999999861,0,1.1319999999999861,1,1.034774254141872
736,1.9969999999999184,1,1.7469999999999184,-1,-1.0026267680923842
737,2.8609999999998235,0,2.6109999999998235,-1,-1.002498371521152
738,0.8570000000000004,1,0.6070000000000004,1,1.0226644596334376
739,0.8610000000000004,1,0.6110000000000004,1,1.040510938606287
740,1.5689999999999655,1,1.3189999999999655,1,1.0255530370896704
741,0.7650000000000003,1,0.5150000000000003,1,1.0229468843265719
742,1.1600000000000006,0,0.9100000000000007,1,1.029817244083525
743,1.8039999999999397,0,1.5539999999999397,1,1.0443561159263346
744,1.9719999999999211,0,1.7219999999999211,-1,-1.0208730104266972
745,1.8609999999999334,0,1.6109999999999334,-1,-1.002068503968125
746,1.1360000000000006,1,0.8860000000000007,1,1.0037297661062434
747,3.25,0,3.0,0,0.021014968511626177
748,3.25,0,3.0,0,-0.5212747341189307
749,0.3720000000000001,1,0.1220000000000001,-1,-1.0231025284670272
750,1.7229999999999486,1,1.4729999999999486,1,1.0375619043198845
751,0.8890000000000005,0,0.6390000000000005,-1,-1.0129420816567687
752,0.6030000000000002,1,0.35300000000000026,1,1.0145886322405613
753,0.9390000000000005,1,0.6890000000000005,1,1.008015432204243
754,1.5699999999999654,1,1.3199999999999654,-1,-1.0053432249855039
755,2.864999999999823,1,2.614999999999823,1,1.0338303431242228
756,0.5060000000000002,1,0.25600000000000017,1,1.0192759741502615
757,0.8610000000000004,1,0.6110000000000004,1,1.0137777076030317
758,1.5499999999999676,1,1.2999999999999676,1,1.0184594205426103
759,0.4900000000000002,0,0.24000000000000019,-1,-1.0364239284594041
760,0.7260000000000004,1,0.47600000000000037,1,1.0473755204235389
761,1.7769999999999426,1,1.5269999999999426,1,1.0129370095733528
762,1.7519999999999454,1,1.5019999999999454,1,1.0060611854428003
763,0.7500000000000003,1,0.5000000000000003,1,1.0134934511083664
764,0.6200000000000003,1,0.3700000000000003,1,1.0179708104956386
765,0.7900000000000004,1,0.5400000000000004,1,1.003025588595081
766,0.8680000000000004,1,0.6180000000000004,1,1.0231980989069887
767,0.8250000000000004,0,0.5750000000000004,-1,-1.0364988120163143
768,1.1930000000000007,1,0.9430000000000007,1,1.0090787311779925
769,1.2679999999999987,0,1.0179999999999987,1,1.0028706152018738
770,1.1690000000000007,0,0.9190000000000007,-1,-1.0005047345674212
771,0.5830000000000002,1,0.33300000000000024,1,1.0098450552962677
772,1.4329999999999805,1,1.1829999999999805,1,1.028201654696547
773,0.41800000000000015,1,0.16800000000000012,1,1.021476993033404
774,0.6230000000000002,0,0.3730000000000003,1,1.002845413200583
775,0.8170000000000004,1,0.5670000000000004,-1,-1.0043506597351113
776,1.518999999999971,1,1.268999999999971,1,1.0249804155821767
777,0.9320000000000005,1,0.6820000000000005,1,1.0090809615987264
778,0.6370000000000002,1,0.3870000000000003,1,1.0179088339663174
779,0.4490000000000002,1,0.19900000000000015,1,1.0360948502290799
780,0.4770000000000002,1,0.22700000000000017,1,1.0087760876111302
781,1.3689999999999876,1,1.1189999999999876,-1,-1.0217462053229063
782,2.5239999999998606,1,2.2739999999998606,-1,-1.0058705038944067
783,2.001999999999918,1,1.7519999999999178,1,1.007303704853255
784,1.1480000000000006,1,0.8980000000000007,-1,-1.0024033036730495
785,2.0639999999999112,1,1.813999999999911,1,1.0159660963530477
786,0.4440000000000002,0,0.19400000000000014,1,1.013893449887139
787,1.1560000000000006,1,0.9060000000000007,1,1.0004410036896152
788,0.42700000000000016,1,0.17700000000000013,1,1.018097148713454
789,1.6319999999999586,1,1.3819999999999586,-1,-1.0300310960091181
790,1.1120000000000005,0,0.8620000000000007,-1,-1.0047911353221393
791,1.3249999999999924,1,1.0749999999999924,1,1.0118420207802086
792,1.2799999999999974,0,1.0299999999999974,1,1.0648717796834766
793,3.246999999999781,0,2.996999999999781,-1,-1.0067258367589809
794,0.5230000000000001,0,0.2730000000000002,-1,-1.0417777132515573
795,0.8000000000000004,1,0.5500000000000004,1,1.0122022811824227
796,1.0170000000000006,1,0.7670000000000006,-1,-1.0101498314296022
797,0.6270000000000002,1,0.3770000000000003,1,1.015995891233885
798,0.7550000000000003,1,0.5050000000000003,1,1.0083422482255027
799,1.0720000000000005,1,0.8220000000000006,-1,-1.074225635871293
800,2.2779999999998877,1,2.0279999999998877,-1,-1.0208890028061766
801,1.3049999999999946,0,1.0549999999999946,-1,-1.0064087941030644
802,1.1330000000000007,1,0.8830000000000007,-1,-1.0428457166800313
803,0.9770000000000005,1,0.7270000000000005,-1,-1.0021589813334246
804,0.5160000000000002,1,0.2660000000000002,1,1.0174961195532495
805,1.9119999999999278,1,1.6619999999999278,1,1.0031063512453544
806,1.601999999999962,1,1.351999999999962,-1,-1.0130839208037097
807,0.5400000000000003,1,0.2900000000000002,1,1.0388815984204234
808,0.9020000000000005,1,0.6520000000000005,-1,-1.0215775425654514
809,0.4520000000000002,0,0.20200000000000015,1,1.0186975533736764
810,0.7660000000000003,1,0.5160000000000003,1,1.0165485642959167
811,1.9529999999999232,1,1.7029999999999232,1,1.010662485680098
812,0.5370000000000001,0,0.2870000000000002,-1,-1.0395505029554848
813,0.5050000000000001,0,0.25500000000000017,-1,-1.0060727195445245
814,0.9810000000000005,0,0.7310000000000005,1,1.0192714389940658
815,0.9750000000000005,1,0.7250000000000005,-1,-1.0089597123173057
816,0.7400000000000004,0,0.4900000000000004,-1,-1.0320233606023455
817,3.25,0,3.0,0,-0.5327037213954804
818,0.5550000000000002,1,0.3050000000000002,1,1.015196217881078
819,1.7069999999999503,0,1.4569999999999503,-1,-1.0068641310006636
820,0.8480000000000004,1,0.5980000000000004,-1,-1.022027465938388
821,0.6300000000000003,1,0.3800000000000003,1,1.004754236500138
822,1.0660000000000007,1,0.8160000000000006,1,1.0079695574195036
823,0.5310000000000001,1,0.2810000000000002,1,1.018789398652441
824,1.6179999999999601,0,1.3679999999999601,-1,-1.0004899272972236
825,0.6420000000000003,1,0.3920000000000003,1,1.0268021178573925
826,1.1100000000000008,1,0.8600000000000007,1,1.0367744498714493
827,0.7190000000000003,0,0.46900000000000036,-1,-1.0080756001062208
828,0.9520000000000005,1,0.7020000000000005,-1,-1.021834499614206
829,1.8119999999999388,1,1.5619999999999388,1,1.0246616719519501
830,0.4860000000000002,1,0.23600000000000018,-1,-1.0134568418529875
831,0.40400000000000014,0,0.1540000000000001,-1,-1.014036142062959
832,1.2420000000000009,1,0.9920000000000008,1,1.0220448683301464
833,2.7599999999998346,1,2.5099999999998346,1,1.0051191995029836
834,0.40100000000000013,1,0.1510000000000001,-1,-1.0126949948145278
835,0.5840000000000003,0,0.33400000000000024,-1,-1.0056097572249922
836,1.6329999999999585,1,1.3829999999999585,1,1.003267245057562
837,0.4840000000000002,1,0.23400000000000018,1,1.0161609251425499
838,2.7049999999998406,1,2.4549999999998406,1,1.0159576172836795
839,1.2290000000000008,1,0.9790000000000008,1,1.0016789395287247
840,0.5930000000000002,1,0.34300000000000025,1,1.0052696933733927
841,0.5410000000000001,1,0.2910000000000002,1,1.0298711397903075
842,1.2270000000000008,1,0.9770000000000008,-1,-1.0146719424525872
843,2.4689999999998666,1,2.2189999999998666,1,1.0031339086901283
844,3.25,0,3.0,0,0.47676090389799614
845,0.8430000000000004,1,0.5930000000000004,1,1.0015620974771455
846,0.8240000000000004,0,0.5740000000000004,1,1.006645965378036
847,2.490999999999864,1,2.240999999999864,-1,-1.013122549816364
848,1.400999999999984,1,1.150999999999984,-1,-1.0504677997709697
849,0.8790000000000004,0,0.6290000000000004,1,1.0056066457130117
850,0.8950000000000005,1,0.6450000000000005,1,1.0294502739575582
851,1.9959999999999185,1,1.7459999999999185,1,1.0240190623853869
852,0.5380000000000003,0,0.2880000000000002,-1,-1.0105883596102183
853,0.4540000000000002,0,0.20400000000000015,-1,-1.0056118736969233
854,1.2759999999999978,0,1.0259999999999978,1,1.0074609864468795
855,1.0870000000000006,0,0.8370000000000006,1,1.0316416740199297
856,0.5980000000000003,1,0.34800000000000025,1,1.0132308124213358
857,0.5760000000000003,1,0.32600000000000023,-1,-1.004738775008133
858,0.9130000000000005,1,0.6630000000000005,1,1.0123969578608911
859,0.6050000000000002,1,0.35500000000000026,1,1.0106760080274273
860,0.4590000000000002,1,0.20900000000000016,1,1.0005646035714206
861,1.0560000000000005,1,0.8060000000000006,-1,-1.0023651424913353
862,1.7699999999999434,0,1.5199999999999434,-1,-1.0185674735071095
863,0.7490000000000003,1,0.4990000000000004,1,1.0171833218621644
864,0.6350000000000002,0,0.3850000000000003,-1,-1.0172079071242193
865,0.5950000000000002,1,0.34500000000000025,1,1.021667196946161
866,0.7530000000000003,1,0.5030000000000003,1,1.0218716466581967
867,0.8290000000000004,0,0.5790000000000004,-1,-1.0038854132658839
868,0.5880000000000003,0,0.33800000000000024,1,1.0121061824285598
869,1.6419999999999575,0,1.3919999999999575,-1,-1.0235757318026502
870,3.25,0,3.0,0,0.12826000804503443
871,0.6590000000000003,0,0.4090000000000003,-1,-1.059377469194903
872,0.7400000000000004,1,0.4900000000000004,1,1.0261158243746737
873,1.8989999999999292,0,1.6489999999999292,-1,-1.0305994857589011
874,1.6239999999999595,1,1.3739999999999595,-1,-1.010402524981997
875,1.0370000000000006,1,0.7870000000000006,1,1.0049971095492192
876,1.0210000000000006,1,0.7710000000000006,1,1.003994731254517
877,0.7180000000000004,0,0.46800000000000036,-1,-1.0027546520230244
878,3.101999999999797,1,2.851999999999797,1,1.0286739836605976
879,0.5730000000000002,1,0.32300000000000023,1,1.0019708895952912
880,1.0870000000000006,0,0.8370000000000006,-1,-1.0453950114780564
881,0.6170000000000002,1,0.36700000000000027,1,1.034995316567254
882,1.0520000000000005,1,0.8020000000000006,1,1.0170668855951563
883,1.718999999999949,1,1.468999999999949,-1,-1.0212278349939405
884,1.2210000000000008,1,0.9710000000000008,-1,-1.042786646101725
885,1.492999999999974,0,1.242999999999974,-1,-1.0632881141071346
886,1.664999999999955,0,1.414999999999955,-1,-1.035848356205772
887,0.5350000000000001,1,0.2850000000000002,1,1.026520622470991
888,0.6050000000000002,1,0.35500000000000026,1,1.0098019730115722
889,1.0600000000000005,1,0.8100000000000006,1,1.0551621286091855
890,0.9200000000000005,1,0.6700000000000005,1,1.011153454523497
891,0.8100000000000004,0,0.5600000000000004,-1,-1.0271188327478318
892,1.8699999999999324,1,1.6199999999999324,1,1.0080965899753915
893,0.9140000000000005,1,0.6640000000000005,1,1.0024233851901108
894,0.7660000000000003,1,0.5160000000000003,1,1.0046917710527488
895,0.3880000000000001,1,0.1380000000000001,1,1.012180237567991
896,1.845999999999935,1,1.595999999999935,1,1.0035250408879524
897,0.8880000000000005,1,0.6380000000000005,1,1.001574356498569
898,2.2289999999998926,0,1.9789999999998928,-1,-1.0289625897700891
899,0.8860000000000005,0,0.6360000000000005,-1,-1.0039537008450168
900,1.0820000000000007,1,0.8320000000000006,1,1.0039574038064853
901,1.282999999999997,1,1.032999999999997,1,1.0046306655955275
902,1.8429999999999354,1,1.5929999999999354,1,1.0140341993778361
903,0.5370000000000001,1,0.2870000000000002,-1,-1.0136965459481175
904,1.1400000000000006,1,0.8900000000000007,1,1.0195568882678552
905,0.7960000000000004,1,0.5460000000000004,1,1.0152026618578802
906,1.0080000000000005,1,0.7580000000000006,1,1.016299140205927
907,0.7380000000000004,0,0.4880000000000004,1,1.002425715124827
908,1.0050000000000006,1,0.7550000000000006,1,1.017015029787652
909,0.9460000000000005,1,0.6960000000000005,-1,-1.0025250931861713
910,2.2999999999998852,0,2.0499999999998852,-1,-1.0541492842184104
911,1.0160000000000005,1,0.7660000000000006,1,1.0036459633853456
912,0.8000000000000004,1,0.5500000000000004,1,1.0163704657311619
913,0.8340000000000004,1,0.5840000000000004,1,1.0176989461395938
914,1.2280000000000006,1,0.9780000000000008,1,1.0576693147799745
915,0.9420000000000005,1,0.6920000000000005,-1,-1.032778714986255
916,0.9790000000000005,1,0.7290000000000005,1,1.018356472488362
917,0.5030000000000001,1,0.25300000000000017,-1,-1.0074986795625098
918,1.5149999999999715,0,1.2649999999999715,-1,-1.0191055991843092
919,1.6409999999999576,1,1.3909999999999576,1,1.0325359321426428
920,0.9380000000000005,1,0.6880000000000005,1,1.0330043717890365
921,1.1240000000000006,1,0.8740000000000007,-1,-1.01157168337832
922,0.7380000000000004,0,0.4880000000000004,-1,-1.0238246004052403
923,3.25,0,3.0,0,-0.01877834914928398
924,1.0530000000000006,0,0.8030000000000006,-1,-1.0426181683810518
925,0.9130000000000005,1,0.6630000000000005,1,1.007508779958346
926,1.61999999999996,1,1.36999999999996,1,1.0129476045543264
927,0.7060000000000004,1,0.45600000000000035,1,1.0013273388586392
928,0.8700000000000004,1,0.6200000000000004,-1,-1.0040512489565963
929,0.6350000000000002,0,0.3850000000000003,-1,-1.0294001897855074
930,0.7570000000000003,1,0.5070000000000003,1,1.0420767566306839
931,0.7970000000000004,1,0.5470000000000004,-1,-1.0010541653102938
932,0.7100000000000004,0,0.46000000000000035,-1,-1.0010301785214595
933,0.8270000000000004,1,0.5770000000000004,1,1.0153928315458034
934,0.7330000000000003,1,0.4830000000000004,1,1.0070688903153424
935,0.43700000000000017,1,0.18700000000000014,1,1.0011472823829193
936,0.41300000000000014,1,0.16300000000000012,1,1.0196217817405155
937,0.8000000000000004,1,0.5500000000000004,1,1.0446748581380205
938,2.203999999999896,0,1.9539999999998956,-1,-1.0063727047792728
939,1.2619999999999993,1,1.0119999999999993,-1,-1.004897561949365
940,0.3560000000000001,0,0.10600000000000008,1,1.0033762826122452
941,0.7340000000000004,1,0.4840000000000004,1,1.0387005719365647
942,2.152999999999901,1,1.9029999999999012,-1,-1.0160001836192145
943,1.0500000000000007,1,0.8000000000000006,1,1.002173379006518
944,0.4870000000000002,0,0.23700000000000018,-1,-1.0375356139297487
945,0.7970000000000004,0,0.5470000000000004,-1,-1.0069560279564456
946,1.628999999999959,1,1.378999999999959,1,1.0075161731740432
947,3.25,0,3.0,0,0.3475569938098691
948,2.1899999999998974,1,1.9399999999998971,1,1.012929075736016
949,1.2520000000000004,1,1.0020000000000004,1,1.018072060200854
950,0.40600000000000014,0,0.1560000000000001,1,1.0256756652704007
951,1.1650000000000007,1,0.9150000000000007,1,1.0352836437401745
952,1.8109999999999389,0,1.5609999999999389,-1,-1.0111686437787086
953,0.9150000000000005,1,0.6650000000000005,1,1.0043245071486229
954,0.6570000000000003,1,0.4070000000000003,1,1.0160882722494544
955,1.4899999999999742,1,1.2399999999999742,-1,-1.0211730055431596
956,0.4900000000000002,1,0.24000000000000019,1,1.0045243643202568
957,0.39600000000000013,0,0.1460000000000001,-1,-1.0008126733890628
958,0.9680000000000005,0,0.7180000000000005,-1,-1.0114796027024433
959,1.0310000000000006,1,0.7810000000000006,1,1.01459694739974
960,1.300999999999995,1,1.050999999999995,1,1.007994602002969
961,1.3999999999999841,1,1.1499999999999841,1,1.0059481935669647
962,0.8950000000000005,1,0.6450000000000005,1,1.0267015703086986
963,1.1120000000000005,1,0.8620000000000007,-1,-1.0105024572809316
964,0.6280000000000003,1,0.3780000000000003,-1,-1.0291841004681699
965,1.1810000000000007,1,0.9310000000000007,1,1.0215831612138777
966,0.5280000000000002,1,0.2780000000000002,1,1.0579418992374514
967,0.5480000000000003,1,0.2980000000000002,1,1.0655694291223317
968,1.4299999999999808,0,1.1799999999999808,-1,-1.0365724608429523
969,1.3489999999999898,1,1.0989999999999898,1,1.070744013570674
970,1.9839999999999198,1,1.7339999999999198,-1,-1.0210830900742967
971,0.40500000000000014,1,0.1550000000000001,1,1.0238890217146308
972,0.5880000000000003,0,0.33800000000000024,1,1.0274898032284976
973,1.0100000000000007,1,0.7600000000000006,-1,-1.0204920236463633
974,1.1570000000000007,1,0.9070000000000007,1,1.0077231247130018
975,1.2040000000000006,1,0.9540000000000007,1,1.0109138561430653
976,3.25,0,3.0,0,0.4770246383811644
977,0.42400000000000015,0,0.17400000000000013,-1,-1.002082016085702
978,0.5620000000000003,1,0.3120000000000002,-1,-1.0384638330910279
979,1.3869999999999856,1,1.1369999999999856,1,1.0376476248658018
980,1.8079999999999392,0,1.5579999999999392,1,1.0129807527501056
981,1.3859999999999857,1,1.1359999999999857,1,1.0283646282924335
982,0.4780000000000002,1,0.22800000000000017,1,1.0262728078920733
983,0.7310000000000003,1,0.48100000000000037,-1,-1.005273922415428
984,0.7830000000000004,0,0.5330000000000004,-1,-1.0193741979143842
985,1.1500000000000008,0,0.9000000000000007,-1,-1.0189616015997744
986,0.5660000000000003,0,0.3160000000000002,1,1.0143668103536159
987,0.7580000000000003,1,0.5080000000000003,1,1.0631212978401772
988,2.7529999999998354,0,2.5029999999998354,-1,-1.0044078252524877
989,0.4580000000000002,1,0.20800000000000016,-1,-1.0153982683051173
990,1.0930000000000006,1,0.8430000000000006,1,1.022878050363256
991,1.1460000000000008,0,0.8960000000000007,-1,-1.0223618124743554
992,1.4259999999999813,1,1.1759999999999813,1,1.0124432693176149
993,0.6640000000000004,1,0.4140000000000003,1,1.037004565653796
994,2.5329999999998596,0,2.2829999999998596,-1,-1.0130693517080218
995,0.5330000000000001,0,0.2830000000000002,1,1.0018733744906123
996,1.9569999999999228,1,1.7069999999999228,1,1.0094579189788373
997,0.5970000000000002,1,0.34700000000000025,1,1.035612512244957
998,1.545999999999968,1,1.295999999999968,1,1.0066290126462827
999,0.6890000000000003,1,0.43900000000000033,-1,-1.0050149340449361
1000,1.8769999999999316,0,1.6269999999999316,-1,-1.0003122964208575
1001,1.3529999999999893,1,1.1029999999999893,1,1.013753807048441
1002,0.5170000000000001,1,0.2670000000000002,-1,-1.007719725925797
1003,2.0979999999999075,1,1.8479999999999073,1,1.0069428548683275
1004,0.9560000000000005,0,0.7060000000000005,-1,-1.0176060455151523
1005,2.265999999999889,0,2.015999999999889,-1,-1.0118382990666543
1006,0.6080000000000003,1,0.35800000000000026,-1,-1.0017758236915328
1007,0.6260000000000003,1,0.3760000000000003,1,1.0109273600590014
1008,1.2799999999999974,0,1.0299999999999974,-1,-1.0047947496511473
1009,0.8600000000000004,1,0.6100000000000004,-1,-1.0381603359129343
1010,0.40800000000000014,1,0.1580000000000001,1,1.0048639688708385
1011,1.7219999999999487,1,1.4719999999999487,1,1.0368619100833754
1012,2.4499999999998687,1,2.1999999999998687,1,1.0055722225339025
1013,1.3069999999999944,1,1.0569999999999944,1,1.0090289560014607
1014,0.5650000000000002,1,0.3150000000000002,1,1.0058180017220995
1015,1.264999999999999,1,1.014999999999999,-1,-1.0277575379094865
1016,0.5000000000000002,1,0.25000000000000017,1,1.0068024869116412
1017,1.6339999999999584,1,1.3839999999999584,-1,-1.002135899015499
1018,0.8180000000000004,0,0.5680000000000004,-1,-1.0360638629720889
1019,0.7080000000000004,1,0.45800000000000035,1,1.0214970213833523
1020,0.7740000000000004,1,0.5240000000000004,1,1.0018280208713934
1021,0.8540000000000004,1,0.6040000000000004,-1,-1.0268039647152207
1022,0.6740000000000004,1,0.4240000000000003,1,1.0035849749617896
1023,0.6550000000000002,1,0.4050000000000003,1,1.0030655104082136
1024,2.6879999999998425,1,2.4379999999998425,-1,-1.0428573668313406
1025,1.4949999999999737,1,1.2449999999999737,1,1.0257318112188938
1026,1.7949999999999406,1,1.5449999999999406,1,1.0014296923229855
1027,0.4890000000000002,0,0.23900000000000018,-1,-1.0035274649056243
1028,0.4650000000000002,1,0.21500000000000016,-1,-1.0114587028734763
1029,2.512999999999862,1,2.262999999999862,-1,-1.0282763291691654
1030,0.9920000000000005,0,0.7420000000000005,-1,-1.0053881400148432
1031,3.25,0,3.0,0,0.8453025531768502
1032,0.6180000000000003,1,0.36800000000000027,1,1.011830228813349
1033,1.5139999999999716,1,1.2639999999999716,1,1.0032874346190672
1034,0.7280000000000004,1,0.47800000000000037,-1,-1.0060954078845574
1035,1.0510000000000006,0,0.8010000000000006,-1,-1.0050053481001275
1036,1.0450000000000006,0,0.7950000000000006,-1,-1.01379861742406
1037,0.5770000000000002,1,0.32700000000000023,1,1.0030765871546459
1038,1.5079999999999723,1,1.2579999999999723,1,1.041590336184432
1039,1.1670000000000007,1,0.9170000000000007,1,1.0057552085482526
1040,1.0940000000000007,1,0.8440000000000006,1,1.0199948450824776
1041,0.5630000000000002,1,0.3130000000000002,1,1.0265805638446626
1042,1.3719999999999872,0,1.1219999999999872,-1,-1.024102330574645
1043,3.044999999999803,1,2.794999999999803,-1,-1.0283924439617644
1044,0.42300000000000015,1,0.17300000000000013,1,1.0125044176253766
1045,1.3149999999999935,1,1.0649999999999935,1,1.0073301326955066
1046,0.33000000000000007,1,0.08000000000000006,-1,-1.0019311708174372
1047,2.008999999999917,1,1.758999999999917,-1,-1.001522270922379
1048,2.3509999999998796,0,2.1009999999998796,-1,-1.0022185511115946
1049,0.8370000000000004,0,0.5870000000000004,-1,-1.0171915082701857
1050,1.6939999999999518,1,1.4439999999999518,1,1.0052149664028627
1051,1.5329999999999695,1,1.2829999999999695,1,1.010984664185554
1052,1.2639999999999991,0,1.0139999999999991,-1,-1.0283507380766301
1053,1.3429999999999904,1,1.0929999999999904,1,1.0234162412037855
1054,1.0160000000000005,0,0.7660000000000006,1,1.0154768741057876
1055,2.965999999999812,1,2.715999999999812,1,1.0246421772326662
1056,2.61899999999985,1,2.36899999999985,1,1.020078328148366
1057,1.265999999999999,0,1.015999999999999,-1,-1.0300862110739348
1058,0.5550000000000002,0,0.3050000000000002,-1,-1.0324790984924914
1059,0.7210000000000003,1,0.47100000000000036,1,1.0203584928814986
1060,0.8080000000000004,1,0.5580000000000004,1,1.0075941387399174
1061,1.854999999999934,1,1.604999999999934,1,1.01533860161567
1062,0.5130000000000001,1,0.2630000000000002,-1,-1.04257190626862
1063,2.191999999999897,0,1.941999999999897,-1,-1.0151682436935308
1064,1.3769999999999867,1,1.1269999999999867,-1,-1.04214667171482
1065,0.5770000000000002,1,0.32700000000000023,1,1.0351062670501325
1066,0.5960000000000003,1,0.34600000000000025,1,1.032263559091724
1067,0.6030000000000002,1,0.35300000000000026,1,1.0067752993851362
1068,0.7550000000000003,0,0.5050000000000003,-1,-1.0078377739011886
1069,1.6419999999999575,1,1.3919999999999575,1,1.0752500977418935
1070,1.6399999999999577,1,1.3899999999999577,-1,-1.0128981090665172
1071,1.1690000000000007,1,0.9190000000000007,-1,-1.0434363951442445
1072,0.8160000000000004,1,0.5660000000000004,1,1.0191167914081785
1073,1.4349999999999803,0,1.1849999999999803,-1,-1.0171774515723055
1074,1.1090000000000007,0,0.8590000000000007,-1,-1.012049003241222
1075,1.6149999999999605,1,1.3649999999999605,1,1.0232079547883075
1076,0.7270000000000003,1,0.47700000000000037,1,1.006946016886603
1077,0.8340000000000004,0,0.5840000000000004,-1,-1.0140722279769552
1078,3.25,0,3.0,0,0.2781421459334824
1079,1.0410000000000006,0,0.7910000000000006,-1,-1.024574090637296
1080,1.3599999999999886,1,1.1099999999999886,1,1.0052252868123746
1081,1.7899999999999412,1,1.5399999999999412,-1,-1.0050118390200145
1082,0.6210000000000002,1,0.3710000000000003,-1,-1.000829495463514
1083,1.2589999999999997,1,1.0089999999999997,1,1.0034414736253023
1084,1.0420000000000007,0,0.7920000000000006,-1,-1.002840724704896
1085,1.7089999999999501,1,1.4589999999999501,1,1.0363944205890803
1086,1.1620000000000008,1,0.9120000000000007,1,1.0216539893871461
1087,2.291999999999886,1,2.041999999999886,1,1.0109276171130155
1088,0.9710000000000005,0,0.7210000000000005,1,1.0432526934487585
1089,1.0950000000000006,1,0.8450000000000006,1,1.032312392837298
1090,0.4860000000000002,1,0.23600000000000018,1,1.0033769057459752
1091,3.25,0,3.0,0,-0.14793467710558672
1092,0.5590000000000002,1,0.3090000000000002,1,1.0017804080452912
1093,1.1910000000000007,1,0.9410000000000007,-1,-1.0158799167459012
1094,0.6830000000000003,1,0.43300000000000033,1,1.0272216833520311
1095,0.5390000000000001,1,0.2890000000000002,1,1.0556845514877864
1096,0.9490000000000005,1,0.6990000000000005,1,1.0194889044479856
1097,2.032999999999914,1,1.7829999999999144,1,1.0112808109558293
1098,0.9390000000000005,1,0.6890000000000005,-1,-1.0432297364353642
1099,1.501999999999973,1,1.251999999999973,1,1.0197689812991013
1100,0.3610000000000001,1,0.11100000000000008,1,1.0222356266537407
1101,0.8600000000000004,1,0.6100000000000004,1,1.0146892323342378
1102,1.3629999999999882,1,1.1129999999999882,1,1.0027276844764434
1103,2.473999999999866,0,2.223999999999866,-1,-1.0389995507999992
1104,0.39500000000000013,1,0.1450000000000001,1,1.0282343589475835
1105,2.0589999999999113,1,1.8089999999999116,1,1.0116008254129956
1106,1.9019999999999289,1,1.6519999999999289,1,1.0022232152065325
1107,1.790999999999941,1,1.540999999999941,-1,-1.0001555792640795
1108,0.5400000000000003,1,0.2900000000000002,1,1.0146261330748039
1109,1.6179999999999601,1,1.3679999999999601,1,1.0061483695901399
1110,0.4800000000000002,1,0.23000000000000018,-1,-1.0088520834422672
1111,0.9450000000000005,1,0.6950000000000005,1,1.043274083313905
1112,0.7880000000000004,1,0.5380000000000004,-1,-1.0228888177830782
1113,1.3169999999999933,1,1.0669999999999933,1,1.0655259254155784
1114,0.8030000000000004,1,0.5530000000000004,1,1.014189424602255
1115,2.2969999999998856,0,2.0469999999998856,-1,-1.0305147025676276
1116,0.6130000000000002,1,0.36300000000000027,-1,-1.0265210931606328
1117,0.7310000000000003,1,0.48100000000000037,1,1.0346252239611198
1118,3.25,0,3.0,0,0.08209934650751792
1119,1.0690000000000006,1,0.8190000000000006,-1,-1.0162608418902708
1120,0.4540000000000002,1,0.20400000000000015,-1,-1.0121407030366971
1121,1.2090000000000007,1,0.9590000000000007,-1,-1.0265848686222279
1122,1.2629999999999992,1,1.0129999999999992,1,1.0235143726157465
1123,2.475999999999866,1,2.225999999999866,1,1.0037867760261152
1124,0.7610000000000003,1,0.5110000000000003,1,1.0188798629902758
1125,0.7590000000000003,1,0.5090000000000003,1,1.0413891778738937
1126,0.3590000000000001,1,0.10900000000000008,1,1.008130016137347
1127,0.7390000000000003,1,0.4890000000000004,-1,-1.006207628177049
1128,0.7200000000000004,1,0.47000000000000036,1,1.0182455939575321
1129,0.5170000000000001,0,0.2670000000000002,-1,-1.033167830234413
1130,0.9140000000000005,1,0.6640000000000005,1,1.0080805887160282
1131,0.7730000000000004,1,0.5230000000000004,1,1.00814934404964
1132,1.492999999999974,0,1.242999999999974,1,1.0085611042290914
1133,1.1260000000000008,1,0.8760000000000007,1,1.036877100665804
1134,1.5039999999999727,0,1.2539999999999727,-1,-1.003819213934933
1135,0.6450000000000002,1,0.3950000000000003,1,1.0132667582684367
1136,1.719999999999949,0,1.469999999999949,1,1.039159832767125
1137,2.848999999999825,0,2.598999999999825,1,1.0180614338816758
1138,0.7650000000000003,0,0.5150000000000003,-1,-1.0107528517505147
1139,0.8870000000000005,0,0.6370000000000005,-1,-1.0042338415188838
1140,0.4890000000000002,1,0.23900000000000018,1,1.008027351431407
1141,0.9480000000000005,1,0.6980000000000005,1,1.0067620933610288
1142,0.8410000000000004,1,0.5910000000000004,1,1.0219588553216408
1143,2.730999999999838,1,2.480999999999838,-1,-1.0098571412844375
1144,0.8310000000000004,1,0.5810000000000004,-1,-1.0153264760201985
1145,0.7080000000000004,0,0.45800000000000035,-1,-1.0376793147152974
1146,1.0720000000000005,1,0.8220000000000006,-1,-1.0260794403284907
1147,0.5610000000000002,1,0.3110000000000002,-1,-1.0080178513170808
1148,0.6510000000000002,1,0.4010000000000003,1,1.0038657619735043
1149,1.5859999999999637,1,1.3359999999999637,-1,-1.0007897262610548
1150,0.7600000000000003,1,0.5100000000000003,1,1.02778485458095
1151,0.7490000000000003,1,0.4990000000000004,1,1.0541042622508479
1152,0.7520000000000003,1,0.5020000000000003,1,1.0020096195482715
1153,0.6640000000000004,1,0.4140000000000003,-1,-1.000571706294591
1154,2.420999999999872,1,2.170999999999872,1,1.0034050811668442
1155,2.1819999999998982,1,1.931999999999898,1,1.0299296952792334
1156,0.6660000000000004,1,0.4160000000000003,-1,-1.0228322101453609
1157,0.4830000000000002,1,0.23300000000000018,1,1.0076920384629682
1158,2.5879999999998535,1,2.3379999999998535,-1,-1.0127286755916651
1159,0.7250000000000003,1,0.47500000000000037,-1,-1.006290973914553
1160,0.6040000000000003,1,0.35400000000000026,1,1.026999257753598
1161,0.6820000000000004,1,0.43200000000000033,1,1.0211068126575311
1162,2.829999999999827,1,2.579999999999827,-1,-1.0095893722471756
1163,0.6650000000000003,0,0.4150000000000003,1,1.0245543770350474
1164,1.9069999999999283,1,1.6569999999999283,1,1.0206483940924715
1165,1.4129999999999827,1,1.1629999999999827,-1,-1.0107366046371526
1166,0.8200000000000004,1,0.5700000000000004,1,1.0127968585078462
1167,1.7689999999999435,1,1.5189999999999435,-1,-1.0265360153383558
1168,2.0819999999999093,1,1.831999999999909,1,1.0104695335292273
1169,2.7129999999998398,1,2.4629999999998398,1,1.0104303226762543
1170,1.7329999999999475,1,1.4829999999999475,-1,-1.0055602944544502
1171,0.6630000000000003,0,0.4130000000000003,-1,-1.0419811943605037
1172,1.2809999999999973,1,1.0309999999999973,1,1.0074900410904886
1173,0.5650000000000002,1,0.3150000000000002,1,1.0075920989157505
1174,0.4800000000000002,0,0.23000000000000018,1,1.0014696980257123
1175,0.5550000000000002,1,0.3050000000000002,-1,-1.0002049700185298
1176,1.9069999999999283,0,1.6569999999999283,1,1.0016267320605088
1177,0.5350000000000001,1,0.2850000000000002,1,1.0252615934215292
1178,0.6080000000000003,1,0.35800000000000026,1,1.0011273926359454
1179,2.1059999999999066,1,1.8559999999999064,-1,-1.0123377659778665
1180,0.4970000000000002,0,0.2470000000000002,-1,-1.0168761548121443
1181,0.7220000000000004,1,0.47200000000000036,1,1.0074905393306992
1182,1.4449999999999792,1,1.1949999999999792,1,1.0174480372338286
1183,1.3249999999999924,1,1.0749999999999924,-1,-1.011331866351403
1184,0.4450000000000002,1,0.19500000000000015,1,1.0325216280806582
1185,0.4510000000000002,1,0.20100000000000015,1,1.019586537453489
1186,1.4239999999999815,0,1.1739999999999815,-1,-1.0233249584394088
1187,2.1289999999999036,1,1.8789999999999039,-1,-1.0347418002575832
1188,0.6490000000000002,0,0.3990000000000003,-1,-1.0177013978859906
1189,1.4939999999999738,0,1.2439999999999738,-1,-1.0782343366728773
1190,0.7070000000000003,1,0.45700000000000035,-1,-1.0062146958578049
1191,1.1810000000000007,1,0.9310000000000007,1,1.0388535352582131
1192,1.1460000000000008,0,0.8960000000000007,-1,-1.0143284181831915
1193,1.681999999999953,0,1.431999999999953,-1,-1.038217090059666
1194,1.1630000000000007,1,0.9130000000000007,1,1.041872973594539
1195,0.7540000000000003,1,0.5040000000000003,1,1.0274343443791745
1196,0.5270000000000001,1,0.2770000000000002,-1,-1.032492130048279
1197,0.39400000000000013,1,0.1440000000000001,-1,-1.0178015821903976
1198,0.6620000000000004,0,0.4120000000000003,1,1.0552658494598361
1199,0.6390000000000002,0,0.3890000000000003,-1,-1.0199264736144424
1200,0.9420000000000005,1,0.6920000000000005,-1,-1.0471034983545422
1201,0.6490000000000002,1,0.3990000000000003,1,1.0118506358312773
1202,1.1370000000000007,1,0.8870000000000007,1,1.019453117637891
1203,0.5590000000000002,1,0.3090000000000002,1,1.0028286952627476
1204,0.5770000000000002,1,0.32700000000000023,1,1.022943986607026
1205,0.6790000000000003,0,0.4290000000000003,1,1.0010484414212424
1206,0.9110000000000005,1,0.6610000000000005,-1,-1.0140904527706478
1207,1.5299999999999698,0,1.2799999999999698,1,1.0000155651981908
1208,0.7000000000000004,1,0.45000000000000034,-1,-1.0190347980808256
1209,0.6490000000000002,1,0.3990000000000003,1,1.0185434665743538
1210,0.9180000000000005,1,0.6680000000000005,-1,-1.0032830294669026
1211,0.6390000000000002,0,0.3890000000000003,1,1.0101829564198337
1212,0.4930000000000002,1,0.2430000000000002,-1,-1.0357770162212248
1213,1.0400000000000005,1,0.7900000000000006,-1,-1.0146939576644882
1214,0.41600000000000015,1,0.16600000000000012,1,1.0044025393751168
1215,1.9479999999999238,1,1.6979999999999238,-1,-1.0076852710502797
1216,1.1980000000000008,1,0.9480000000000007,1,1.0576301454202108
1217,0.7820000000000004,1,0.5320000000000004,-1,-1.0027754072232333
1218,1.0940000000000007,1,0.8440000000000006,1,1.0401465959272875
1219,0.7260000000000004,1,0.47600000000000037,1,1.0164746800273015
1220,0.9750000000000005,1,0.7250000000000005,-1,-1.0741886598768349
1221,1.6239999999999595,0,1.3739999999999595,-1,-1.0145308658684893
1222,1.0620000000000007,1,0.8120000000000006,-1,-1.0228042344624342
1223,1.2959999999999956,0,1.0459999999999956,-1,-1.0115562068793027
1224,0.7280000000000004,1,0.47800000000000037,-1,-1.0004034200393808
1225,2.0519999999999126,1,1.8019999999999123,-1,-1.0043930982857867
1226,0.5890000000000002,1,0.33900000000000025,1,1.0154139346226816
1227,0.6610000000000003,0,0.4110000000000003,-1,-1.0226632966286162
1228,0.7770000000000004,1,0.5270000000000004,1,1.0061838199107134
1229,0.3710000000000001,1,0.1210000000000001,1,1.019900516191355
1230,0.7280000000000004,1,0.47800000000000037,-1,-1.0099777512426837
1231,0.4480000000000002,1,0.19800000000000015,1,1.0131518019023875
1232,0.6610000000000003,0,0.4110000000000003,1,1.0039607245094264
1233,0.6510000000000002,1,0.4010000000000003,1,1.0000028219610224
1234,3.1709999999997893,1,2.9209999999997893,-1,-1.0123807261731048
1235,2.973999999999811,1,2.723999999999811,-1,-1.0401038950359427
1236,1.0570000000000006,1,0.8070000000000006,1,1.0025259857525972
1237,1.9159999999999273,0,1.6659999999999273,-1,-1.0107506090564244
1238,1.0000000000000004,1,0.7500000000000006,1,1.0009891193394602
1239,0.9630000000000005,1,0.7130000000000005,1,1.0092096743443373
1240,0.8280000000000004,1,0.5780000000000004,-1,-1.011457000803066
1241,1.3209999999999928,1,1.0709999999999928,1,1.0182449656907824
1242,0.4860000000000002,1,0.23600000000000018,-1,-1.0047442011321253
1243,1.1360000000000006,1,0.8860000000000007,1,1.0226067511854537
1244,0.6660000000000004,1,0.4160000000000003,1,1.04504847878965
1245,2.303999999999885,1,2.053999999999885,1,1.0017029925837426
1246,1.1260000000000008,1,0.8760000000000007,1,1.0389214036223664
1247,0.7400000000000004,0,0.4900000000000004,-1,-1.040637449180703
1248,0.7540000000000003,0,0.5040000000000003,-1,-1.0005034923762377
1249,0.5790000000000002,1,0.32900000000000024,1,1.0009719043675438
1250,1.2989999999999953,1,1.0489999999999953,1,1.0018956851389738
1251,0.6110000000000002,1,0.36100000000000027,-1,-1.009110280813887
1252,1.5269999999999702,0,1.2769999999999702,-1,-1.0017754374257972
1253,0.4670000000000002,1,0.21700000000000016,1,1.0143095936212132
1254,1.1890000000000007,1,0.9390000000000007,1,1.021512527236175
1255,0.7700000000000004,1,0.5200000000000004,1,1.0557996261044682
1256,2.127999999999904,1,1.877999999999904,-1,-1.022071883379498
1257,3.25,0,3.0,0,-0.6198095602867806
1258,1.9069999999999283,1,1.6569999999999283,1,1.0098126492058013
1259,0.8820000000000005,1,0.6320000000000005,1,1.0411187406715225
1260,0.8490000000000004,1,0.5990000000000004,-1,-1.0066448402400776
1261,0.5110000000000001,1,0.2610000000000002,1,1.045495382611848
1262,1.374999999999987,1,1.124999999999987,1,1.0005411209445767
1263,1.282999999999997,1,1.032999999999997,1,1.0504021442306188
1264,1.4849999999999748,1,1.2349999999999748,1,1.0422006941200646
1265,0.6800000000000004,1,0.4300000000000003,1,1.0114188867644656
1266,1.1450000000000007,0,0.8950000000000007,-1,-1.0145239223986553
1267,0.5540000000000003,1,0.3040000000000002,1,1.015205730167135
1268,0.9510000000000005,1,0.7010000000000005,1,1.014859626438052
1269,0.8660000000000004,1,0.6160000000000004,1,1.0157282638213527
1270,0.9260000000000005,0,0.6760000000000005,-1,-1.0147204786074087
1271,0.9170000000000005,1,0.6670000000000005,-1,-1.0224287018741374
1272,2.25799999999989,0,2.00799999999989,1,1.0244680426983317
1273,1.0710000000000006,0,0.8210000000000006,1,1.008658200839965
1274,1.636999999999958,1,1.386999999999958,-1,-1.0047282928960015
1275,2.108999999999906,0,1.858999999999906,-1,-1.010762382464239
1276,0.6260000000000003,1,0.3760000000000003,1,1.0215199947559483
1277,0.9090000000000005,1,0.6590000000000005,-1,-1.025480134750179
1278,0.5840000000000003,0,0.33400000000000024,-1,-1.0220680086810638
1279,0.7680000000000003,1,0.5180000000000003,1,1.0320209189497946
1280,0.9900000000000005,1,0.7400000000000005,1,1.0220296994343543
1281,1.2060000000000008,1,0.9560000000000007,1,1.0278757638932954
1282,0.6790000000000003,1,0.4290000000000003,1,1.0327073166882825
1283,0.7930000000000004,1,0.5430000000000004,1,1.014880876252343
1284,0.9960000000000006,1,0.7460000000000006,1,1.0028987290026934
1285,3.1759999999997888,0,2.9259999999997888,1,1.004968422943649
1286,0.7940000000000004,0,0.5440000000000004,1,1.0048320168732372
1287,0.9700000000000005,1,0.7200000000000005,-1,-1.0034038533450529
1288,3.211999999999785,0,2.961999999999785,-1,-1.030702727967271
1289,2.482999999999865,1,2.232999999999865,1,1.005835228821817
1290,0.8480000000000004,1,0.5980000000000004,-1,-1.0033683204348418
1291,1.0100000000000007,1,0.7600000000000006,1,1.0276065077854737
1292,0.6250000000000002,0,0.3750000000000003,-1,-1.0028809311477624
1293,1.3599999999999886,0,1.1099999999999886,-1,-1.0176087864031131
1294,1.3849999999999858,1,1.1349999999999858,-1,-1.0099841966273537
1295,0.5580000000000003,1,0.3080000000000002,1,1.0462237964795307
1296,0.9550000000000005,1,0.7050000000000005,-1,-1.0086748852191225
1297,0.3610000000000001,1,0.11100000000000008,1,1.00336685757542
1298,1.8079999999999392,0,1.5579999999999392,-1,-1.0249899404178886
1299,1.6489999999999567,1,1.3989999999999567,1,1.0088881825719587
1300,1.1440000000000006,1,0.8940000000000007,1,1.0109815738598151
1301,0.8290000000000004,0,0.5790000000000004,-1,-1.0296173676611788
1302,0.6300000000000003,1,0.3800000000000003,1,1.011959803776972
1303,0.4680000000000002,1,0.21800000000000017,-1,-1.0026920791867064
1304,0.9420000000000005,1,0.6920000000000005,1,1.0656984205647495
1305,0.7100000000000004,0,0.46000000000000035,-1,-1.00144622213926
1306,0.3830000000000001,1,0.1330000000000001,1,1.0315807565939634
1307,1.5149999999999715,0,1.2649999999999715,-1,-1.009323533783
1308,1.0850000000000006,1,0.8350000000000006,-1,-1.025231748955613
1309,3.25,0,3.0,0,0.4040821070351743
1310,2.091999999999908,0,1.841999999999908,1,1.032161936228399
1311,0.8910000000000005,1,0.6410000000000005,1,1.0042817035665592
1312,0.6790000000000003,1,0.4290000000000003,1,1.016869601023713
1313,1.0130000000000006,1,0.7630000000000006,1,1.0311997084937463
1314,1.1910000000000007,1,0.9410000000000007,1,1.0290397541931566
1315,0.8620000000000004,1,0.6120000000000004,-1,-1.0088006187794178
1316,0.43900000000000017,1,0.18900000000000014,1,1.0057006462690679
1317,1.0710000000000006,1,0.8210000000000006,1,1.0243301052172327
1318,1.2490000000000008,1,0.9990000000000008,1,1.0012428643313287
1319,1.6979999999999513,1,1.4479999999999513,1,1.03358539782923
1320,0.7620000000000003,1,0.5120000000000003,-1,-1.0120392171595802
1321,0.5750000000000002,0,0.32500000000000023,1,1.0037289220778867
1322,1.0890000000000006,1,0.8390000000000006,1,1.0182180164368402
1323,0.8790000000000004,1,0.6290000000000004,1,1.002182083459467
1324,1.4149999999999825,1,1.1649999999999825,1,1.0024114323371898
1325,3.1959999999997866,1,2.9459999999997866,-1,-1.0234830851093766
1326,0.6700000000000004,1,0.4200000000000003,-1,-1.0034818850588632
1327,0.6750000000000003,1,0.4250000000000003,1,1.0154896250104108
1328,1.6149999999999605,0,1.3649999999999605,-1,-1.0071113103817155
1329,1.1150000000000007,1,0.8650000000000007,1,1.018913287540668
1330,1.6539999999999562,1,1.4039999999999562,-1,-1.0312096014152814
1331,0.8060000000000004,1,0.5560000000000004,1,1.0142285206804242
1332,1.8169999999999382,1,1.5669999999999382,-1,-1.0044631453811124
1333,1.6939999999999518,0,1.4439999999999518,-1,-1.0040053325663432
1334,2.1609999999999,1,1.9109999999999003,1,1.0171488685150458
1335,1.2050000000000007,0,0.9550000000000007,-1,-1.0018295867278448
1336,1.3689999999999876,0,1.1189999999999876,1,1.004573709227341
1337,0.8750000000000004,0,0.6250000000000004,-1,-1.0155709055748414
1338,2.0719999999999104,1,1.8219999999999101,1,1.0245234659804185
1339,0.6380000000000003,1,0.3880000000000003,1,1.0100311472898806
1340,1.3269999999999922,1,1.0769999999999922,-1,-1.0172210844477978
1341,0.6480000000000004,0,0.3980000000000003,-1,-1.0137645210314987
1342,1.3869999999999856,0,1.1369999999999856,-1,-1.0007882681240312
1343,0.4710000000000002,1,0.22100000000000017,-1,-1.0249141393174244
1344,1.7929999999999409,1,1.5429999999999409,1,1.011960658540971
1345,1.1020000000000008,1,0.8520000000000006,-1,-1.0050192608225479
1346,0.3700000000000001,0,0.12000000000000009,-1,-1.027266008238604
1347,0.41500000000000015,1,0.16500000000000012,-1,-1.0318954814164831
1348,0.6820000000000004,1,0.43200000000000033,1,1.0171548979501992
1349,0.6390000000000002,1,0.3890000000000003,-1,-1.0380268597714422
1350,0.8800000000000004,0,0.6300000000000004,-1,-1.0068522767863881
1351,1.4869999999999746,1,1.2369999999999746,1,1.0160093339210203
1352,0.7020000000000004,0,0.45200000000000035,-1,-1.0168602536431015
1353,0.5470000000000002,0,0.2970000000000002,-1,-1.003467597583716
1354,1.0170000000000006,1,0.7670000000000006,-1,-1.0019642505135637
1355,0.7830000000000004,1,0.5330000000000004,-1,-1.01968649434039
1356,0.6240000000000003,1,0.3740000000000003,-1,-1.0020261906600703
1357,1.0940000000000007,1,0.8440000000000006,-1,-1.0259276902931957
1358,0.5740000000000003,1,0.32400000000000023,-1,-1.012175260121023
1359,2.180999999999898,1,1.9309999999998981,1,1.0195137774700649
1360,0.44300000000000017,1,0.19300000000000014,1,1.0184593388437844
1361,1.1700000000000008,1,0.9200000000000007,1,1.0135778836457074
1362,1.6299999999999588,1,1.3799999999999588,1,1.077106862612193
1363,1.6619999999999553,1,1.4119999999999553,1,1.01372322585884
1364,1.0210000000000006,0,0.7710000000000006,-1,-1.0106564989962645
1365,1.0530000000000006,1,0.8030000000000006,-1,-1.0173760726789607
1366,0.7050000000000003,0,0.45500000000000035,-1,-1.0099267770035867
1367,0.7480000000000004,0,0.4980000000000004,1,1.028000519483294
1368,1.8789999999999314,0,1.6289999999999314,-1,-1.0414579197972806
1369,3.25,0,3.0,0,-0.3321980597244746
1370,1.4769999999999757,1,1.2269999999999757,1,1.0130180648691423
1371,0.7290000000000003,0,0.47900000000000037,-1,-1.0568832707473577
1372,2.420999999999872,1,2.170999999999872,1,1.0005009805243927
1373,0.8660000000000004,1,0.6160000000000004,1,1.0043384914559665
1374,1.327999999999992,1,1.077999999999992,1,1.0330687359872746
1375,0.6270000000000002,1,0.3770000000000003,1,1.0212674421408168
1376,2.4449999999998693,0,2.1949999999998693,-1,-1.005319598422207
1377,0.6150000000000002,1,0.36500000000000027,1,1.011329279086605
1378,1.0290000000000006,1,0.7790000000000006,1,1.0058910887001962
1379,3.25,0,3.0,0,0.17486103790436258
1380,1.6479999999999568,0,1.3979999999999568,1,1.0252944770925565
1381,0.5450000000000002,1,0.2950000000000002,-1,-1.0097989214651857
1382,0.3620000000000001,0,0.11200000000000009,-1,-1.004751456517302
1383,2.080999999999909,1,1.8309999999999091,-1,-1.0127754073550719
1384,1.0050000000000006,0,0.7550000000000006,-1,-1.0173916762574347
1385,0.4590000000000002,1,0.20900000000000016,1,1.0157729407890583
1386,1.2170000000000007,1,0.9670000000000007,1,1.0013332302356772
1387,0.9190000000000005,1,0.6690000000000005,-1,-1.0026434740869927
1388,2.909999999999818,1,2.659999999999818,1,1.0160342268459661
1389,1.2140000000000009,0,0.9640000000000007,-1,-1.0012486019253841
1390,2.7039999999998408,0,2.4539999999998408,-1,-1.0733144555619232
1391,3.25,0,3.0,0,0.07564571010847851
1392,1.0330000000000006,1,0.7830000000000006,-1,-1.018549083207105
1393,1.4299999999999808,1,1.1799999999999808,1,1.0222475064756642
1394,1.2809999999999973,1,1.0309999999999973,1,1.0404678627524477
1395,0.7700000000000004,1,0.5200000000000004,1,1.0144056364184044
1396,0.7180000000000004,1,0.46800000000000036,1,1.0302451471731706
1397,0.8200000000000004,1,0.5700000000000004,1,1.019540852136394
1398,1.0220000000000007,1,0.7720000000000006,1,1.0008472046191412
1399,0.8960000000000005,1,0.6460000000000005,1,1.0052904406995717
1400,0.4880000000000002,1,0.23800000000000018,1,1.0048602300886869
1401,1.6429999999999574,1,1.3929999999999574,1,1.0207473073826736
1402,1.4659999999999769,1,1.2159999999999769,1,1.0336026601101285
1403,1.463999999999977,1,1.213999999999977,-1,-1.0003577419989649
1404,2.0229999999999153,0,1.7729999999999155,-1,-1.006955152512212
1405,0.6580000000000004,0,0.4080000000000003,1,1.0333520960907585
1406,2.4949999999998638,1,2.2449999999998638,1,1.027023658481956
1407,0.7610000000000003,0,0.5110000000000003,-1,-1.0072089757270757
1408,1.0400000000000005,1,0.7900000000000006,1,1.022190199458549
1409,0.41900000000000015,1,0.16900000000000012,1,1.0014926846578498
1410,1.0300000000000007,1,0.7800000000000006,-1,-1.0084722232151901
1411,2.3059999999998846,0,2.0559999999998846,-1,-1.0424399984658195
1412,1.9599999999999225,1,1.7099999999999225,1,1.0135277206367819
1413,0.8600000000000004,1,0.6100000000000004,-1,-1.0142312956777795
1414,1.6249999999999594,1,1.3749999999999594,1,1.0076471479423297
1415,0.7060000000000004,0,0.45600000000000035,-1,-1.0169941128977222
1416,0.8530000000000004,0,0.6030000000000004,-1,-1.0021225863535743
1417,0.6530000000000002,1,0.4030000000000003,1,1.0132218824354111
1418,0.8800000000000004,1,0.6300000000000004,-1,-1.0045316828249646
1419,2.0769999999999094,0,1.8269999999999096,-1,-1.0198881089216318
1420,3.25,0,3.0,0,-0.256267642874853
1421,2.052999999999912,1,1.8029999999999122,-1,-1.0113833677454558
1422,0.6020000000000003,0,0.35200000000000026,-1,-1.0014764730248416
1423,1.6259999999999593,1,1.3759999999999593,1,1.016917047621788
1424,0.9590000000000005,1,0.7090000000000005,-1,-1.0065901025279453
1425,0.9960000000000006,1,0.7460000000000006,1,1.0172402466294015
1426,0.4970000000000002,1,0.2470000000000002,-1,-1.0567550803510979
1427,1.7319999999999476,1,1.4819999999999476,1,1.0638347344310113
1428,3.25,0,3.0,0,-0.3976729368659605
1429,0.6960000000000004,0,0.44600000000000034,-1,-1.0816646880504737
1430,1.1310000000000007,1,0.8810000000000007,-1,-1.0029836485861705
1431,0.8190000000000004,1,0.5690000000000004,-1,-1.0027985060542586
1432,1.427999999999981,1,1.177999999999981,-1,-1.0509644753664753
1433,0.9760000000000005,0,0.7260000000000005,-1,-1.0228126356727336
1434,1.6419999999999575,1,1.3919999999999575,1,1.011974993451278
1435,1.2609999999999995,1,1.0109999999999995,1,1.001504696793149
1436,0.6800000000000004,1,0.4300000000000003,1,1.0080877978595313
1437,0.7240000000000004,1,0.47400000000000037,1,1.0012903606700256
1438,0.6980000000000004,1,0.44800000000000034,1,1.0018011323052565
1439,1.7499999999999456,0,1.4999999999999456,1,1.0288629250261092
1440,1.7159999999999493,1,1.4659999999999493,1,1.0190883092290928
1441,0.39400000000000013,0,0.1440000000000001,-1,-1.0120594479991025
1442,2.5339999999998595,1,2.2839999999998595,1,1.0356498121817173
1443,1.809999999999939,1,1.559999999999939,1,1.016960459546777
1444,0.7460000000000004,1,0.4960000000000004,1,1.005294725086609
1445,0.42600000000000016,1,0.17600000000000013,1,1.0248418945509115
1446,0.8840000000000005,1,0.6340000000000005,1,1.0090130295877588
1447,0.8050000000000004,0,0.5550000000000004,1,1.0070227840976065
1448,0.9330000000000005,0,0.6830000000000005,-1,-1.0440011034630792
1449,2.2189999999998937,1,1.968999999999894,1,1.006982470769474
1450,2.0929999999999076,1,1.8429999999999078,-1,-1.0203546929616119
1451,1.3479999999999899,0,1.0979999999999899,-1,-1.050038010192333
1452,3.035999999999804,1,2.785999999999804,1,1.0043507118101045
1453,2.421999999999872,1,2.171999999999872,1,1.0376688922072301
1454,1.2140000000000009,1,0.9640000000000007,1,1.000561528673995
1455,0.6620000000000004,1,0.4120000000000003,1,1.0026641007217456
1456,0.8950000000000005,1,0.6450000000000005,1,1.0199280596690432
1457,0.9020000000000005,0,0.6520000000000005,1,1.0366108705976491
1458,0.7860000000000004,1,0.5360000000000004,1,1.0047695150689668
1459,0.8460000000000004,1,0.5960000000000004,1,1.027111116185529
1460,0.7180000000000004,1,0.46800000000000036,-1,-1.0014788877480105
1461,0.3900000000000001,1,0.1400000000000001,-1,-1.0198050902110987
1462,1.1300000000000008,1,0.8800000000000007,1,1.005854189873601
1463,0.6320000000000003,1,0.3820000000000003,-1,-1.0381380887584337
1464,1.4539999999999782,1,1.2039999999999782,-1,-1.0581151835345033
1465,0.5470000000000002,1,0.2970000000000002,1,1.0118393068055802
1466,2.4139999999998727,1,2.1639999999998727,1,1.0100355542729305
1467,1.301999999999995,1,1.051999999999995,1,1.0009091108995096
1468,0.5660000000000003,0,0.3160000000000002,-1,-1.0642960570546354
1469,0.8960000000000005,1,0.6460000000000005,1,1.0085939288979304
1470,0.6260000000000003,1,0.3760000000000003,-1,-1.0307333396098435
1471,0.6630000000000003,1,0.4130000000000003,-1,-1.0221521546105938
1472,1.8139999999999386,1,1.5639999999999386,1,1.0010074670574607
1473,0.7790000000000004,1,0.5290000000000004,-1,-1.0271675727987186
1474,0.9540000000000005,1,0.7040000000000005,-1,-1.008637374758902
1475,0.32300000000000006,1,0.07300000000000005,1,1.0025020989223252
1476,2.106999999999906,1,1.8569999999999063,-1,-1.0217585193958874
1477,0.8170000000000004,1,0.5670000000000004,1,1.0086134050445859
1478,1.2050000000000007,1,0.9550000000000007,1,1.0123412626572883
1479,2.1489999999999014,1,1.8989999999999017,1,1.018322727838741
1480,1.8949999999999296,1,1.6449999999999296,1,1.0145528557984929
1481,2.6719999999998443,1,2.4219999999998443,-1,-1.0007399675002888
1482,0.9320000000000005,0,0.6820000000000005,-1,-1.0147212723041814
1483,1.3039999999999947,0,1.0539999999999947,1,1.0362766915162966
1484,1.4429999999999794,1,1.1929999999999794,1,1.001415644361781
1485,1.772999999999943,1,1.522999999999943,1,1.016492359030779
1486,1.1150000000000007,1,0.8650000000000007,1,1.0072036411160508
1487,1.0790000000000006,1,0.8290000000000006,1,1.023305846569434
1488,1.1900000000000008,1,0.9400000000000007,1,1.0726477620153854
1489,1.8659999999999328,1,1.6159999999999328,-1,-1.0161248100316855
1490,2.8609999999998235,0,2.6109999999998235,1,1.0732734903823216
1491,0.7390000000000003,1,0.4890000000000004,-1,-1.013381092553463
1492,1.7779999999999425,1,1.5279999999999425,1,1.004429373456402
1493,1.5509999999999675,1,1.3009999999999675,1,1.0514748295687408
1494,1.5089999999999721,1,1.2589999999999721,1,1.0199630879932737
1495,0.6510000000000002,1,0.4010000000000003,1,1.037867570071921
1496,3.25,0,3.0,0,-0.41272073504347506
1497,2.7149999999998395,1,2.4649999999998395,-1,-1.013514503606837
1498,3.1619999999997903,1,2.9119999999997903,1,1.0272111454601633
1499,1.5079999999999723,1,1.2579999999999723,-1,-1.0295747474792876
1500,0.6500000000000004,1,0.4000000000000003,1,1.0067554778392287
1501,0.7150000000000003,1,0.46500000000000036,1,1.0082968659558726
1502,0.5730000000000002,1,0.32300000000000023,1,1.0130198319698476
1503,1.0930000000000006,1,0.8430000000000006,1,1.0193557501440298
1504,2.5609999999998565,1,2.3109999999998565,1,1.0242674129289806
1505,2.150999999999901,1,1.9009999999999014,1,1.0312985591222266
1506,1.3119999999999938,1,1.0619999999999938,-1,-1.018740942667317
1507,2.2369999999998917,1,1.986999999999892,-1,-1.0233559954292002
1508,1.0880000000000005,1,0.8380000000000006,1,1.0026692164639814
1509,3.0799999999997993,0,2.8299999999997993,-1,-1.0056412885357968
1510,1.1450000000000007,1,0.8950000000000007,-1,-1.0191038130506866
